	roll	pitch	yaw	gx	gy	gz	ax	ay	az		diff x	diff y	diff z			
36	0	0	0	0	0	1000	-11.47	-10.01	1002.71		-11.47	-10.01	2.71			
37	0	0	0	0	0	1000	-11.47	-10.01	1002.71		-11.47	-10.01	2.71		MEAN	ST DEV
38	0	0	0	0	0	1000	-10.99	-3.91	999.29		-10.99	-3.91	-0.71		-0.199826972	
39	0	0	0	0	0	1000	-4.15	-8.06	1008.08		-4.15	-8.06	8.08		0.100982188	
40	0	0	0	0	0	1000	-12.7	-7.32	1000.75		-12.7	-7.32	0.75		3.968127226	
41	-0.3	0.4	29.3	-7.45	-4.59	999.96	-12.7	-7.32	1000.75		-5.25	-2.73	0.79			
42	-0.3	0.4	29.3	-7.47	-4.53	999.96	0.24	-2.2	1001.24		7.71	2.33	1.28			
43	-0.3	0.4	29.3	-7.54	-4.58	999.96	0.24	-2.2	1001.24		7.78	2.38	1.28			
44	-0.3	0.4	29.3	-7.66	-4.78	999.96	-11.96	-3.17	1008.08		-4.3	1.61	8.12			
45	-0.3	0.4	29.3	-7.67	-4.79	999.96	-8.3	-4.88	1004.66		-0.63	-0.09	4.7			
46	-0.3	0.5	29.3	-7.97	-4.66	999.96	-8.3	-4.88	1004.66		-0.33	-0.22	4.7			
47	-0.3	0.5	29.3	-7.96	-5.03	999.96	-14.4	-6.84	1005.15		-6.44	-1.81	5.19			
48	-0.3	0.5	29.3	-7.94	-5.07	999.96	-9.28	-6.84	998.55		-1.34	-1.77	-1.41			
49	-0.3	0.5	29.2	-8	-5.02	999.96	-9.28	-6.84	998.55		-1.28	-1.82	-1.41			
50	-0.3	0.5	29.2	-7.99	-4.94	999.96	-8.3	-7.57	1003.44		-0.31	-2.63	3.48			
51	-0.3	0.5	29.2	-7.88	-4.96	999.96	-8.3	-7.57	1003.44		-0.42	-2.61	3.48			
52	-0.3	0.5	29.2	-7.87	-5.03	999.96	-12.45	-4.88	1001.24		-4.58	0.15	1.28			
53	-0.3	0.5	29.2	-7.86	-5.15	999.96	-7.08	-6.35	999.78		0.78	-1.2	-0.18			
54	-0.3	0.5	29.2	-7.88	-5.2	999.96	-7.08	-6.35	999.78		0.8	-1.15	-0.18			
55	-0.3	0.5	29.2	-7.88	-5.2	999.96	-5.13	-4.15	1002.71		2.75	1.05	2.75			
56	-0.3	0.5	29.2	-7.98	-5.16	999.95	-11.72	-9.28	1001.97		-3.74	-4.12	2.02			
57	-0.3	0.5	29.2	-7.98	-5.16	999.95	-11.72	-9.28	1001.97		-3.74	-4.12	2.02			
58	-0.3	0.5	29.2	-7.98	-5.15	999.95	-6.84	-7.81	1003.93		1.14	-2.66	3.98			
59	-0.3	0.5	29.2	-7.98	-5.15	999.95	-6.84	-7.81	1003.93		1.14	-2.66	3.98			
60	-0.3	0.5	29.2	-8.06	-5.2	999.95	-3.66	-6.35	1004.17		4.4	-1.15	4.22			
61	-0.3	0.5	29.2	-8.1	-5.14	999.95	-7.32	-4.64	1003.68		0.78	0.5	3.73			
62	-0.3	0.5	29.2	-8.1	-5.14	999.95	-7.32	-4.64	1003.68		0.78	0.5	3.73			
63	-0.3	0.5	29.2	-8.1	-5.14	999.95	-4.15	0.49	1004.9		3.95	5.63	4.95			
64	-0.3	0.5	29.2	-8	-5.23	999.95	-9.28	-7.32	1003.19		-1.28	-2.09	3.24			
65	-0.3	0.5	29.2	-8	-5.23	999.95	-9.28	-7.32	1003.19		-1.28	-2.09	3.24			
66	-0.3	0.5	29.2	-8.12	-5.3	999.95	-4.88	-3.42	1000.02		3.24	1.88	0.07			
67	-0.3	0.5	29.2	-8.16	-5.25	999.95	-8.79	-7.81	998.8		-0.63	-2.56	-1.15			
68	-0.3	0.5	29.2	-8.16	-5.25	999.95	-8.79	-7.81	998.8		-0.63	-2.56	-1.15			
69	-0.3	0.5	29.2	-8.14	-5.24	999.95	-8.79	-3.17	1001.73		-0.65	2.07	1.78			
70	-0.3	0.5	29.2	-8.14	-5.24	999.95	-8.79	-3.17	1001.73		-0.65	2.07	1.78			
71	-0.3	0.5	29.2	-8.14	-5.24	999.95	-1.95	-6.35	1001		6.19	-1.11	1.05			
72	-0.3	0.5	29.2	-8.23	-5.25	999.95	-9.03	-6.35	1003.44		-0.8	-1.1	3.49			
73	-0.3	0.5	29.2	-8.41	-5.17	999.95	-9.03	-6.35	1003.44		-0.62	-1.18	3.49			
74	-0.3	0.5	29.2	-8.41	-5.17	999.95	-11.96	-6.84	1004.9		-3.55	-1.67	4.95			
75	-0.3	0.5	29.2	-8.38	-5.13	999.95	-10.99	-4.88	1008.08		-2.61	0.25	8.13			
76	-0.3	0.5	29.2	-8.38	-5.13	999.95	-10.99	-4.88	1008.08		-2.61	0.25	8.13			
77	-0.3	0.5	29.2	-8.18	-5.06	999.95	-10.5	-2.69	1001.24		-2.32	2.37	1.29			
78	-0.3	0.5	29.2	-8.19	-5.05	999.95	-10.5	-2.69	1001.24		-2.31	2.36	1.29			
79	-0.3	0.5	29.2	-8.19	-5.05	999.95	-12.45	-7.57	1001.73		-4.26	-2.52	1.78			
80	-0.3	0.5	29.2	-8.16	-5.03	999.95	-10.25	-0.49	1001.73		-2.09	4.54	1.78			
81	-0.3	0.5	29.2	-8.16	-5.03	999.95	-10.25	-0.49	1001.73		-2.09	4.54	1.78			
82	-0.3	0.5	29.2	-8.16	-5.03	999.95	-8.79	-7.08	1005.63		-0.63	-2.05	5.68			
83	-0.3	0.5	29.2	-8.24	-5.13	999.95	-9.77	-4.88	1003.44		-1.53	0.25	3.49			
84	-0.3	0.5	29.1	-8.23	-5.15	999.95	-9.77	-4.88	1003.44		-1.54	0.27	3.49			
85	-0.3	0.5	29.1	-8.22	-5.12	999.95	-9.03	-8.06	1004.9		-0.81	-2.94	4.95			
86	-0.3	0.5	29.1	-8.22	-5.12	999.95	-9.03	-8.06	1004.9		-0.81	-2.94	4.95			
87	-0.3	0.5	29.1	-8.22	-5.12	999.95	-9.03	-4.64	1006.37		-0.81	0.48	6.42			
88	-0.3	0.5	29.1	-8.32	-5.08	999.95	-7.81	-2.93	1003.68		0.51	2.15	3.73			
89	-0.3	0.5	29.1	-8.32	-5.08	999.95	-7.81	-2.93	1003.68		0.51	2.15	3.73			
90	-0.3	0.5	29.1	-8.31	-5.1	999.95	-6.59	-6.1	1005.88		1.72	-1	5.93			
91	-0.3	0.5	29.1	-8.31	-5.11	999.95	-9.77	-4.39	1003.44		-1.46	0.72	3.49			
92	-0.3	0.5	29.1	-8.31	-5.11	999.95	-9.77	-4.39	1003.44		-1.46	0.72	3.49			
93	-0.3	0.5	29.2	-8.22	-5.07	999.95	-5.86	2.93	1005.15		2.36	8	5.2			
94	-0.3	0.5	29.2	-8.22	-5.07	999.95	-5.86	2.93	1005.15		2.36	8	5.2			
95	-0.3	0.5	29.2	-8.22	-5.07	999.95	-10.74	-5.62	999.29		-2.52	-0.55	-0.66			
96	-0.3	0.5	29.1	-8.25	-5.06	999.95	-3.91	-4.88	1000.51		4.34	0.18	0.56			
97	-0.3	0.5	29.1	-8.31	-5.14	999.95	-3.91	-4.88	1000.51		4.4	0.26	0.56			
98	-0.3	0.5	29.1	-8.31	-5.14	999.95	-12.7	-6.35	1001.24		-4.39	-1.21	1.29			
99	-0.3	0.5	29.1	-8.33	-4.95	999.95	-9.28	-7.32	1005.63		-0.95	-2.37	5.68			
100	-0.3	0.5	29.1	-8.33	-4.95	999.95	-9.28	-7.32	1005.63		-0.95	-2.37	5.68			
101	-0.3	0.5	29.1	-8.32	-4.93	999.95	-7.57	-6.84	1004.66		0.75	-1.91	4.71			
102	-0.3	0.5	29.1	-8.28	-4.94	999.95	-2.93	-2.93	1004.66		5.35	2.01	4.71			
103	-0.3	0.5	29.1	-8.28	-4.94	999.95	-2.93	-2.93	1004.66		5.35	2.01	4.71			
104	-0.3	0.5	29.1	-8.28	-4.96	999.95	-8.54	-6.59	1004.9		-0.26	-1.63	4.95			
105	-0.3	0.5	29.1	-8.28	-4.96	999.95	-8.54	-6.59	1004.9		-0.26	-1.63	4.95			
106	-0.3	0.5	29.1	-8.28	-4.96	999.95	-3.66	0.24	1007.83		4.62	5.2	7.88			
107	-0.3	0.5	29.1	-8.26	-5	999.95	-11.23	-8.06	1001.97		-2.97	-3.06	2.02			
108	-0.3	0.5	29.1	-8.27	-5.06	999.95	-11.23	-8.06	1001.97		-2.96	-3	2.02			
109	-0.3	0.5	29.1	-8.27	-5.06	999.95	-9.77	-5.62	1002.71		-1.5	-0.56	2.76			
110	-0.3	0.5	29.1	-8.22	-5.06	999.95	-9.77	-6.35	1002.22		-1.55	-1.29	2.27			
111	-0.3	0.5	29.1	-8.22	-5.06	999.95	-9.77	-6.35	1002.22		-1.55	-1.29	2.27			
112	-0.3	0.5	29.1	-8.09	-5.11	999.95	-4.39	-0.98	1002.46		3.7	4.13	2.51			
113	-0.3	0.5	29.1	-8.09	-5.11	999.95	-4.39	-0.98	1002.46		3.7	4.13	2.51			
114	-0.3	0.5	29.1	-8.13	-5.3	999.95	-10.5	-3.66	1007.83		-2.37	1.64	7.88			
115	-0.3	0.5	29.1	-8.14	-5.28	999.95	-6.84	-11.47	1002.95		1.3	-6.19	3			
116	-0.3	0.5	29.1	-8.14	-5.28	999.95	-6.84	-11.47	1002.95		1.3	-6.19	3			
117	-0.3	0.5	29.1	-8.14	-5.28	999.95	-12.7	-0.49	1001.73		-4.56	4.79	1.78			
118	-0.3	0.5	29.1	-8.06	-5.23	999.95	-10.5	-10.25	1005.63		-2.44	-5.02	5.68			
119	-0.3	0.5	29.1	-8.06	-5.23	999.95	-10.5	-10.25	1005.63		-2.44	-5.02	5.68			
120	-0.3	0.5	29.1	-8.06	-5.26	999.95	-7.08	-7.81	1000.75		0.98	-2.55	0.8			
121	-0.3	0.5	29.1	-8.08	-5.33	999.95	-7.08	-7.81	1000.75		1	-2.48	0.8			
122	-0.3	0.5	29.1	-8.08	-5.33	999.95	-16.85	-0.73	1005.88		-8.77	4.6	5.93			
123	-0.3	0.5	29.1	-8.05	-5.32	999.95	-9.03	-3.42	1000.51		-0.98	1.9	0.56			
124	-0.3	0.5	29.1	-8.05	-5.32	999.95	-9.03	-3.42	1000.51		-0.98	1.9	0.56			
125	-0.3	0.5	29.1	-8.05	-5.32	999.95	-8.54	-5.62	998.55		-0.49	-0.3	-1.4			
126	-0.3	0.5	29.1	-8.03	-5.25	999.95	-1.71	0.24	997.09		6.32	5.49	-2.86			
127	-0.3	0.5	29.1	-8.13	-5.17	999.95	-1.71	0.24	997.09		6.42	5.41	-2.86			
128	-0.3	0.5	29.1	-8.14	-5.14	999.95	-10.74	-9.52	1004.17		-2.6	-4.38	4.22			
129	-0.3	0.5	29.1	-8.14	-5.14	999.95	-10.74	-9.52	1004.17		-2.6	-4.38	4.22			
130	-0.3	0.5	29.1	-8.14	-5.14	999.95	-12.21	-3.66	1000.26		-4.07	1.48	0.31			
131	-0.3	0.5	29.1	-8.25	-5.15	999.95	-6.59	-4.64	1003.19		1.66	0.51	3.24			
132	-0.3	0.5	29.1	-8.41	-5.12	999.95	-6.59	-4.64	1003.19		1.82	0.48	3.24			
133	-0.3	0.5	29.1	-8.41	-5.12	999.95	-11.96	-7.57	1006.86		-3.55	-2.45	6.91			
134	-0.3	0.5	29.1	-8.43	-5.13	999.95	-5.62	-2.93	1005.88		2.81	2.2	5.93			
135	-0.3	0.5	29.1	-8.43	-5.13	999.95	-5.62	-2.93	1005.88		2.81	2.2	5.93			
136	-0.3	0.5	29.1	-8.46	-5.06	999.95	-10.25	-0.73	1001.48		-1.79	4.33	1.53			
137	-0.3	0.5	29.1	-8.46	-5.06	999.95	-10.25	-0.73	1001.48		-1.79	4.33	1.53			
138	-0.3	0.5	29.1	-8.44	-5.02	999.95	-11.23	-7.32	1001.24		-2.79	-2.3	1.29			
139	-0.3	0.5	29.1	-8.45	-5.17	999.95	-8.3	-3.42	1004.9		0.15	1.75	4.95			
140	-0.3	0.5	29.1	-8.45	-5.17	999.95	-8.3	-3.42	1004.9		0.15	1.75	4.95			
141	-0.3	0.5	29.1	-8.45	-5.17	999.95	-7.57	-3.17	999.78		0.88	2	-0.17			
142	-0.3	0.5	29.1	-8.43	-5.14	999.95	-8.79	-2.44	1008.56		-0.36	2.7	8.61			
143	-0.3	0.5	29.1	-8.43	-5.14	999.95	-8.79	-2.44	1008.56		-0.36	2.7	8.61			
144	-0.3	0.5	29.1	-8.44	-5.16	999.95	-8.54	-2.44	999.78		-0.1	2.72	-0.17			
145	-0.3	0.5	29.1	-8.49	-5.13	999.95	-8.54	-2.44	999.78		-0.05	2.69	-0.17			
146	-0.3	0.5	29.1	-8.49	-5.13	999.95	-7.81	-10.01	1007.83		0.68	-4.88	7.88			
147	-0.3	0.5	29.1	-8.59	-5.16	999.95	-6.1	-4.39	1003.44		2.49	0.77	3.49			
148	-0.3	0.5	29.1	-8.59	-5.16	999.95	-6.1	-4.39	1003.44		2.49	0.77	3.49			
149	-0.3	0.5	29.1	-8.62	-5.16	999.95	-10.25	-3.17	1002.46		-1.63	1.99	2.51			
150	-0.3	0.5	29.1	-8.65	-5.17	999.95	-7.08	-5.37	1006.86		1.57	-0.2	6.91			
151	-0.3	0.5	29.1	-8.65	-5.17	999.95	-7.08	-5.37	1006.86		1.57	-0.2	6.91			
152	-0.3	0.5	29.1	-8.65	-5.17	999.95	-12.21	-5.37	1005.63		-3.56	-0.2	5.68			
153	-0.3	0.5	29.1	-8.65	-5.12	999.95	-7.57	-1.22	1007.1		1.08	3.9	7.15			
154	-0.3	0.5	29.1	-8.65	-5.12	999.95	-7.57	-1.22	1007.1		1.08	3.9	7.15			
155	-0.3	0.5	29.1	-8.66	-5.01	999.95	-11.96	-8.06	1007.1		-3.3	-3.05	7.15			
156	-0.3	0.5	29.1	-8.65	-5	999.95	-11.96	-8.06	1007.1		-3.31	-3.06	7.15			
157	-0.3	0.5	29.1	-8.65	-5	999.95	-9.03	-11.72	1007.34		-0.38	-6.72	7.39			
158	-0.3	0.5	29.2	-8.62	-4.95	999.95	-10.25	-3.66	1007.1		-1.63	1.29	7.15			
159	-0.3	0.5	29.2	-8.62	-4.95	999.95	-10.25	-3.66	1007.1		-1.63	1.29	7.15			
160	-0.3	0.5	29.1	-8.66	-4.87	999.95	-8.3	-3.42	1006.12		0.36	1.45	6.17			
161	-0.3	0.5	29.1	-8.66	-4.87	999.95	-8.3	-3.42	1006.12		0.36	1.45	6.17			
162	-0.3	0.5	29.1	-8.63	-4.91	999.95	-5.86	-4.39	1009.05		2.77	0.52	9.1			
163	-0.3	0.5	29.1	-8.54	-4.82	999.95	-8.3	-5.37	1000.02		0.24	-0.55	0.07			
164	-0.3	0.5	29.1	-8.54	-4.82	999.95	-8.3	-5.37	1000.02		0.24	-0.55	0.07			
165	-0.3	0.5	29.1	-8.54	-4.82	999.95	-7.81	-1.22	1011.25		0.73	3.6	11.3			
166	-0.3	0.5	29.1	-8.55	-4.79	999.95	-13.43	-3.17	1004.17		-4.88	1.62	4.22			
167	-0.3	0.5	29.1	-8.55	-4.79	999.95	-13.43	-3.17	1004.17		-4.88	1.62	4.22			
168	-0.3	0.5	29.1	-8.52	-4.79	999.95	-2.69	-0.73	1003.93		5.83	4.06	3.98			
169	-0.3	0.5	29.1	-8.55	-4.78	999.95	-2.69	-0.73	1003.93		5.86	4.05	3.98			
170	-0.3	0.5	29.1	-8.55	-4.78	999.95	-9.77	-4.64	1004.41		-1.22	0.14	4.46			
171	-0.3	0.5	29.1	-8.53	-4.81	999.95	-6.84	-5.13	1000.26		1.69	-0.32	0.31			
172	-0.3	0.5	29.1	-8.53	-4.81	999.95	-6.84	-5.13	1000.26		1.69	-0.32	0.31			
173	-0.3	0.5	29.1	-8.53	-4.81	999.95	-6.1	-9.77	1005.39		2.43	-4.96	5.44			
174	-0.3	0.5	29.2	-8.48	-4.77	999.95	-5.86	-5.86	1002.71		2.62	-1.09	2.76			
175	-0.3	0.5	29.2	-8.24	-4.82	999.95	-5.86	-5.86	1002.71		2.38	-1.04	2.76			
176	-0.3	0.5	29.2	-8.24	-4.82	999.95	-10.74	-3.91	1000.75		-2.5	0.91	0.8			
177	-0.3	0.5	29.2	-8.23	-4.83	999.95	-10.99	-8.54	1004.17		-2.76	-3.71	4.22			
178	-0.3	0.5	29.2	-8.23	-4.83	999.95	-10.99	-8.54	1004.17		-2.76	-3.71	4.22			
179	-0.3	0.5	29.2	-8.18	-4.82	999.95	-14.4	-6.35	1005.63		-6.22	-1.53	5.68			
180	-0.3	0.5	29.1	-8.19	-4.82	999.95	-14.4	-6.35	1005.63		-6.21	-1.53	5.68			
181	-0.3	0.5	29.1	-8.19	-4.82	999.95	-4.39	-0.98	1001.48		3.8	3.84	1.53			
182	-0.3	0.5	29.1	-8.19	-4.86	999.95	-12.7	-8.06	1004.9		-4.51	-3.2	4.95			
183	-0.3	0.5	29.1	-8.19	-4.86	999.95	-12.7	-8.06	1004.9		-4.51	-3.2	4.95			
184	-0.3	0.5	29.2	-8.18	-4.84	999.95	-12.7	-6.84	1000.75		-4.52	-2	0.8			
185	-0.3	0.5	29.2	-8.18	-4.84	999.95	-12.7	-6.84	1000.75		-4.52	-2	0.8			
186	-0.3	0.5	29.1	-8.15	-4.8	999.96	-8.54	-5.37	1004.9		-0.39	-0.57	4.94			
187	-0.3	0.5	29.1	-8.16	-4.93	999.95	-5.13	-4.39	1008.08		3.03	0.54	8.13			
188	-0.3	0.5	29.1	-8.16	-4.93	999.95	-5.13	-4.39	1008.08		3.03	0.54	8.13			
189	-0.3	0.5	29.1	-8.16	-4.93	999.95	-7.81	-6.84	1003.68		0.35	-1.91	3.73			
190	-0.3	0.5	29.1	-8.03	-4.89	999.96	-10.99	-3.42	1011.25		-2.96	1.47	11.29			
191	-0.3	0.5	29.1	-8.03	-4.89	999.96	-10.99	-3.42	1011.25		-2.96	1.47	11.29			
192	-0.3	0.5	29.1	-8.08	-5.05	999.95	-11.47	-2.2	1007.34		-3.39	2.85	7.39			
193	-0.3	0.5	29.1	-8.06	-5.03	999.95	-11.47	-2.2	1007.34		-3.41	2.83	7.39			
194	-0.3	0.5	29.1	-8.06	-5.03	999.95	-1.95	-8.54	1004.41		6.11	-3.51	4.46			
195	-0.3	0.5	29.2	-8.04	-5.05	999.95	-8.3	-0.73	1004.41		-0.26	4.32	4.46			
196	-0.3	0.5	29.2	-8.04	-5.05	999.95	-8.3	-0.73	1004.41		-0.26	4.32	4.46			
197	-0.3	0.5	29.2	-8.04	-5.05	999.95	-10.99	-0.49	1005.88		-2.95	4.56	5.93			
198	-0.3	0.5	29.2	-8.2	-5.06	999.95	-8.54	-5.86	1000.75		-0.34	-0.8	0.8			
199	-0.3	0.5	29.2	-8.21	-5.19	999.95	-8.54	-5.86	1000.75		-0.33	-0.67	0.8			
200	-0.3	0.5	29.2	-8.2	-5.2	999.95	-11.72	-7.32	1003.44		-3.52	-2.12	3.49			
201	-0.3	0.5	29.2	-8.2	-5.2	999.95	-11.72	-7.32	1003.44		-3.52	-2.12	3.49			
202	-0.3	0.5	29.2	-8.2	-5.2	999.95	-10.5	-6.59	1004.17		-2.3	-1.39	4.22			
203	-0.3	0.5	29.2	-8.16	-5.21	999.95	-13.92	-8.54	1004.9		-5.76	-3.33	4.95			
204	-0.3	0.5	29.2	-8.19	-5.12	999.95	-13.92	-8.54	1004.9		-5.73	-3.42	4.95			
205	-0.3	0.5	29.2	-8.19	-5.12	999.95	-7.57	-10.99	1004.9		0.62	-5.87	4.95			
206	-0.3	0.5	29.2	-8.07	-5.11	999.95	-17.09	-6.1	1004.17		-9.02	-0.99	4.22			
207	-0.3	0.5	29.2	-8.07	-5.11	999.95	-17.09	-6.1	1004.17		-9.02	-0.99	4.22			
208	-0.3	0.5	29.2	-8.08	-5.09	999.95	-12.45	-0.73	1008.56		-4.37	4.36	8.61			
209	-0.3	0.5	29.2	-8.08	-5.09	999.95	-12.45	-0.73	1008.56		-4.37	4.36	8.61			
210	-0.3	0.5	29.2	-8.08	-5.07	999.95	-0.98	-7.32	1003.19		7.1	-2.25	3.24			
211	-0.3	0.4	29.2	-7.85	-5.1	999.96	-9.03	0.49	1002.46		-1.18	5.59	2.5			
212	-0.3	0.4	29.2	-7.85	-5.1	999.96	-9.03	0.49	1002.46		-1.18	5.59	2.5			
213	-0.3	0.4	29.2	-7.85	-5.1	999.96	-6.59	0.49	1003.44		1.26	5.59	3.48			
214	-0.3	0.4	29.2	-7.85	-5.12	999.96	-14.16	-4.15	1000.26		-6.31	0.97	0.3			
215	-0.3	0.5	29.2	-7.88	-5.16	999.96	-14.16	-4.15	1000.26		-6.28	1.01	0.3			
216	-0.3	0.4	29.2	-7.85	-5.16	999.96	-10.5	-5.62	1001.73		-2.65	-0.46	1.77			
217	-0.3	0.4	29.2	-7.85	-5.16	999.96	-10.5	-5.62	1001.73		-2.65	-0.46	1.77			
218	-0.3	0.4	29.2	-7.85	-5.16	999.96	-4.64	-6.84	1002.95		3.21	-1.68	2.99			
219	-0.3	0.4	29.2	-7.73	-5.23	999.96	-8.79	-5.86	1011.74		-1.06	-0.63	11.78			
220	-0.3	0.4	29.2	-7.73	-5.23	999.96	-8.79	-5.86	1011.74		-1.06	-0.63	11.78			
221	-0.3	0.4	29.2	-7.73	-5.23	999.96	-14.89	-9.28	1005.15		-7.16	-4.05	5.19			
222	-0.3	0.4	29.2	-7.75	-5.2	999.96	-9.28	-11.23	1004.66		-1.53	-6.03	4.7			
223	-0.3	0.4	29.2	-7.8	-5.27	999.96	-9.28	-11.23	1004.66		-1.48	-5.96	4.7			
224	-0.3	0.4	29.2	-7.75	-5.23	999.96	-9.03	-2.69	1002.95		-1.28	2.54	2.99			
225	-0.3	0.4	29.2	-7.75	-5.23	999.96	-9.03	-2.69	1002.95		-1.28	2.54	2.99			
226	-0.3	0.4	29.2	-7.75	-5.23	999.96	-4.64	-3.66	1007.59		3.11	1.57	7.63			
227	-0.3	0.4	29.2	-7.75	-5.22	999.96	-8.79	1.22	1006.61		-1.04	6.44	6.65			
228	-0.3	0.4	29.3	-7.7	-5.32	999.96	-8.79	1.22	1006.61		-1.09	6.54	6.65			
229	-0.3	0.4	29.3	-7.7	-5.32	999.96	-9.03	-4.39	1006.37		-1.33	0.93	6.41			
230	-0.3	0.4	29.2	-7.83	-5.3	999.96	-9.28	-5.86	1005.63		-1.45	-0.56	5.67			
231	-0.3	0.4	29.2	-7.83	-5.3	999.96	-9.28	-5.86	1005.63		-1.45	-0.56	5.67			
232	-0.3	0.4	29.2	-7.83	-5.3	999.96	-5.86	-5.86	1005.15		1.97	-0.56	5.19			
233	-0.3	0.5	29.2	-7.88	-5.3	999.95	-4.39	-3.66	1005.63		3.49	1.64	5.68			
234	-0.3	0.4	29.2	-7.84	-5.28	999.96	-4.39	-3.66	1005.63		3.45	1.62	5.67			
235	-0.3	0.5	29.2	-7.96	-5.21	999.95	-5.86	-5.86	1004.9		2.1	-0.65	4.95			
236	-0.3	0.5	29.2	-7.96	-5.21	999.95	-5.86	-5.86	1004.9		2.1	-0.65	4.95			
237	-0.3	0.5	29.2	-7.96	-5.21	999.95	-6.1	-4.39	1001.97		1.86	0.82	2.02			
238	-0.3	0.5	29.2	-8.01	-5.22	999.95	-7.81	-5.86	1007.83		0.2	-0.64	7.88			
239	-0.3	0.5	29.2	-8.01	-5.22	999.95	-7.81	-5.86	1007.83		0.2	-0.64	7.88			
240	-0.3	0.5	29.2	-8.02	-5.19	999.95	-10.5	-1.22	1001.73		-2.48	3.97	1.78			
241	-0.3	0.5	29.2	-8.04	-5.07	999.95	-7.32	-1.95	1000.26		0.72	3.12	0.31			
242	-0.3	0.5	29.2	-8.04	-5.07	999.95	-7.32	-1.95	1000.26		0.72	3.12	0.31			
243	-0.3	0.5	29.2	-8.06	-5.04	999.95	-7.32	-3.91	1001.97		0.74	1.13	2.02			
244	-0.3	0.5	29.2	-8.06	-5.04	999.95	-7.32	-3.91	1001.97		0.74	1.13	2.02			
245	-0.3	0.5	29.2	-8.06	-5.04	999.95	-12.21	-4.15	1001.24		-4.15	0.89	1.29			
246	-0.3	0.5	29.2	-8.09	-5.27	999.95	-4.39	-4.39	1006.61		3.7	0.88	6.66			
247	-0.3	0.5	29.2	-8.1	-5.25	999.95	-4.39	-4.39	1006.61		3.71	0.86	6.66			
248	-0.3	0.5	29.2	-8.1	-5.25	999.95	-11.72	-7.57	1001.97		-3.62	-2.32	2.02			
249	-0.3	0.5	29.2	-8.15	-5.36	999.95	-2.44	-5.62	1004.41		5.71	-0.26	4.46			
250	-0.3	0.5	29.2	-8.15	-5.36	999.95	-2.44	-5.62	1004.41		5.71	-0.26	4.46			
251	-0.3	0.5	29.2	-8.21	-5.33	999.95	-5.86	-5.37	1002.71		2.35	-0.04	2.76			
252	-0.3	0.5	29.2	-8.24	-5.3	999.95	-5.86	-5.37	1002.71		2.38	-0.07	2.76			
253	-0.3	0.5	29.2	-8.24	-5.3	999.95	-8.79	0	1005.15		-0.55	5.3	5.2			
254	-0.3	0.5	29.2	-8.29	-5.32	999.95	-6.59	-7.08	998.31		1.7	-1.76	-1.64			
255	-0.3	0.5	29.2	-8.29	-5.32	999.95	-6.59	-7.08	998.31		1.7	-1.76	-1.64			
256	-0.3	0.5	29.2	-8.29	-5.32	999.95	-10.99	0.98	998.07		-2.7	6.3	-1.88			
257	-0.3	0.5	29.2	-8.25	-5.27	999.95	-6.59	-8.54	1007.1		1.66	-3.27	7.15			
258	-0.3	0.5	29.2	-8.15	-5.2	999.95	-6.59	-8.54	1007.1		1.56	-3.34	7.15			
259	-0.3	0.5	29.2	-8.15	-5.2	999.95	-8.06	-10.99	1002.22		0.09	-5.79	2.27			
260	-0.3	0.5	29.2	-8.09	-5.26	999.95	-6.1	-6.84	1001.24		1.99	-1.58	1.29			
261	-0.3	0.5	29.2	-8.09	-5.26	999.95	-6.1	-6.84	1001.24		1.99	-1.58	1.29			
262	-0.3	0.5	29.2	-8.11	-5.29	999.95	-5.86	-5.62	1001.73		2.25	-0.33	1.78			
263	-0.3	0.5	29.2	-8.11	-5.29	999.95	-5.86	-5.62	1001.73		2.25	-0.33	1.78			
264	-0.3	0.5	29.2	-8.27	-5.28	999.95	-5.37	-6.1	1001.73		2.9	-0.82	1.78			
265	-0.3	0.5	29.3	-8.31	-5.3	999.95	-9.03	-6.59	1003.68		-0.72	-1.29	3.73			
266	-0.3	0.5	29.3	-8.31	-5.3	999.95	-9.03	-6.59	1003.68		-0.72	-1.29	3.73			
267	-0.3	0.5	29.3	-8.31	-5.3	999.95	-2.69	-5.37	1002.46		5.62	-0.07	2.51			
268	-0.3	0.5	29.3	-8.33	-5.38	999.95	-9.28	-3.91	1000.75		-0.95	1.47	0.8			
269	-0.3	0.5	29.3	-8.33	-5.38	999.95	-9.28	-3.91	1000.75		-0.95	1.47	0.8			
270	-0.3	0.5	29.3	-8.32	-5.45	999.95	-2.93	-2.44	1005.39		5.39	3.01	5.44			
271	-0.3	0.5	29.2	-8.41	-5.42	999.95	-2.93	-2.44	1005.39		5.48	2.98	5.44			
272	-0.3	0.5	29.2	-8.41	-5.42	999.95	-6.35	-4.88	999.04		2.06	0.54	-0.91			
273	-0.3	0.5	29.3	-8.43	-5.43	999.95	-4.15	-1.22	1004.9		4.28	4.21	4.95			
274	-0.3	0.5	29.3	-8.43	-5.43	999.95	-4.15	-1.22	1004.9		4.28	4.21	4.95			
275	-0.3	0.5	29.3	-8.43	-5.43	999.95	-7.08	-7.81	999.04		1.35	-2.38	-0.91			
276	-0.3	0.5	29.2	-8.35	-5.47	999.95	-7.81	-4.64	1005.15		0.54	0.83	5.2			
277	-0.3	0.5	29.2	-8.33	-5.47	999.95	-7.81	-4.64	1005.15		0.52	0.83	5.2			
278	-0.3	0.5	29.2	-8.27	-5.4	999.95	-5.62	-10.74	1008.32		2.65	-5.34	8.37			
279	-0.3	0.5	29.2	-8.27	-5.4	999.95	-5.62	-10.74	1008.32		2.65	-5.34	8.37			
280	-0.3	0.5	29.2	-8.27	-5.4	999.95	-15.14	-11.96	1008.08		-6.87	-6.56	8.13			
281	-0.3	0.5	29.2	-8.19	-5.43	999.95	-6.35	-5.37	999.78		1.84	0.06	-0.17			
282	-0.3	0.5	29.2	-8.09	-5.41	999.95	-6.35	-5.37	999.78		1.74	0.04	-0.17			
283	-0.3	0.5	29.2	-8.09	-5.41	999.95	-11.96	-4.39	1000.26		-3.87	1.02	0.31			
284	-0.3	0.5	29.2	-8.1	-5.39	999.95	-6.1	-5.13	1007.83		2	0.26	7.88			
285	-0.3	0.5	29.2	-8.1	-5.39	999.95	-6.1	-5.13	1007.83		2	0.26	7.88			
286	-0.3	0.5	29.2	-8.11	-5.48	999.95	-5.62	-9.77	1003.68		2.49	-4.29	3.73			
287	-0.3	0.5	29.2	-8.11	-5.48	999.95	-5.62	-9.77	1003.68		2.49	-4.29	3.73			
288	-0.3	0.5	29.2	-8.1	-5.45	999.95	-8.06	-10.99	1001.24		0.04	-5.54	1.29			
289	-0.3	0.5	29.2	-8.01	-5.61	999.95	-6.35	0.24	1002.46		1.66	5.85	2.51			
290	-0.3	0.5	29.2	-8.01	-5.61	999.95	-6.35	0.24	1002.46		1.66	5.85	2.51			
291	-0.3	0.5	29.2	-8.01	-5.61	999.95	-8.79	-4.88	1001.97		-0.78	0.73	2.02			
292	-0.3	0.5	29.2	-8.06	-5.59	999.95	-11.23	-5.13	1007.83		-3.17	0.46	7.88			
293	-0.3	0.5	29.2	-8.06	-5.59	999.95	-11.23	-5.13	1007.83		-3.17	0.46	7.88			
294	-0.3	0.5	29.2	-8.04	-5.74	999.95	-7.81	-4.39	1002.71		0.23	1.35	2.76			
295	-0.3	0.5	29.2	-7.97	-5.63	999.95	-5.37	1.22	1007.34		2.6	6.85	7.39			
296	-0.3	0.5	29.2	-7.97	-5.63	999.95	-5.37	1.22	1007.34		2.6	6.85	7.39			
297	-0.3	0.5	29.2	-7.96	-5.58	999.95	-6.59	-5.13	1006.37		1.37	0.45	6.42			
298	-0.3	0.5	29.2	-7.96	-5.58	999.95	-6.59	-5.13	1006.37		1.37	0.45	6.42			
299	-0.3	0.5	29.2	-7.96	-5.58	999.95	-2.93	-6.35	1007.1		5.03	-0.77	7.15			
300	-0.3	0.5	29.2	-7.97	-5.55	999.95	-6.1	-3.91	1004.17		1.87	1.64	4.22			
301	-0.3	0.5	29.2	-7.89	-5.48	999.95	-6.1	-3.91	1004.17		1.79	1.57	4.22			
302	-0.3	0.5	29.2	-7.89	-5.48	999.95	-8.06	-1.71	997.82		-0.17	3.77	-2.13			
303	-0.3	0.4	29.2	-7.76	-5.54	999.95	-15.14	-8.79	1000.02		-7.38	-3.25	0.07			
304	-0.3	0.4	29.2	-7.76	-5.54	999.95	-15.14	-8.79	1000.02		-7.38	-3.25	0.07			
305	-0.3	0.4	29.2	-7.75	-5.51	999.95	-11.72	0.98	1006.61		-3.97	6.49	6.66			
306	-0.3	0.4	29.3	-7.77	-5.51	999.95	-11.72	0.98	1006.61		-3.95	6.49	6.66			
307	-0.3	0.4	29.3	-7.77	-5.51	999.95	-8.06	-5.62	1000.02		-0.29	-0.11	0.07			
308	-0.3	0.4	29.3	-7.75	-5.5	999.95	-4.39	-5.86	1002.71		3.36	-0.36	2.76			
309	-0.3	0.4	29.3	-7.75	-5.5	999.95	-4.39	-5.86	1002.71		3.36	-0.36	2.76			
310	-0.3	0.4	29.3	-7.75	-5.5	999.95	-8.79	-7.08	997.33		-1.04	-1.58	-2.62			
311	-0.3	0.4	29.2	-7.81	-5.55	999.95	-10.01	-10.01	1005.15		-2.2	-4.46	5.2			
312	-0.3	0.4	29.2	-7.82	-5.57	999.95	-10.01	-10.01	1005.15		-2.19	-4.44	5.2			
313	-0.3	0.5	29.2	-7.97	-5.4	999.95	-7.57	-4.88	1003.19		0.4	0.52	3.24			
314	-0.3	0.5	29.2	-7.97	-5.4	999.95	-7.57	-4.88	1003.19		0.4	0.52	3.24			
315	-0.3	0.5	29.2	-7.97	-5.4	999.95	-11.72	-3.42	1005.63		-3.75	1.98	5.68			
316	-0.3	0.5	29.2	-8.01	-5.4	999.95	-10.25	-1.22	1008.08		-2.24	4.18	8.13			
317	-0.3	0.5	29.2	-8.01	-5.4	999.95	-10.25	-1.22	1008.08		-2.24	4.18	8.13			
318	-0.3	0.5	29.3	-7.99	-5.23	999.95	-11.96	-6.35	1001.73		-3.97	-1.12	1.78			
319	-0.3	0.5	29.3	-7.95	-5.3	999.95	-4.88	-4.39	1003.44		3.07	0.91	3.49			
320	-0.3	0.5	29.3	-7.95	-5.3	999.95	-4.88	-4.39	1003.44		3.07	0.91	3.49			
321	-0.3	0.5	29.2	-7.89	-5.22	999.96	-9.28	-4.64	1005.15		-1.39	0.58	5.19			
322	-0.3	0.5	29.2	-7.89	-5.22	999.96	-9.28	-4.64	1005.15		-1.39	0.58	5.19			
323	-0.3	0.5	29.2	-7.89	-5.22	999.96	-9.52	-11.23	1005.39		-1.63	-6.01	5.43			
324	-0.3	0.5	29.3	-7.93	-5.22	999.95	-10.5	-5.37	1001.97		-2.57	-0.15	2.02			
325	-0.3	0.4	29.3	-7.85	-5.06	999.96	-10.5	-5.37	1001.97		-2.65	-0.31	2.01			
326	-0.3	0.4	29.3	-7.85	-5.06	999.96	-9.52	-5.37	1001.24		-1.67	-0.31	1.28			
327	-0.3	0.5	29.3	-7.86	-5.07	999.96	-12.45	-8.54	1006.12		-4.59	-3.47	6.16			
328	-0.3	0.5	29.3	-7.86	-5.07	999.96	-12.45	-8.54	1006.12		-4.59	-3.47	6.16			
329	-0.3	0.5	29.3	-7.88	-5.07	999.96	-7.32	-9.03	1001.73		0.56	-3.96	1.77			
330	-0.3	0.4	29.3	-7.83	-5.07	999.96	-7.32	-9.03	1001.73		0.51	-3.96	1.77			
331	-0.3	0.4	29.3	-7.83	-5.07	999.96	-6.1	-0.24	1003.19		1.73	4.83	3.23			
332	-0.3	0.4	29.3	-7.84	-5.08	999.96	-10.01	-3.91	1008.81		-2.17	1.17	8.85			
333	-0.3	0.4	29.3	-7.84	-5.08	999.96	-10.01	-3.91	1008.81		-2.17	1.17	8.85			
334	-0.3	0.4	29.3	-7.84	-5.08	999.96	-7.32	-5.13	1005.63		0.52	-0.05	5.67			
335	-0.3	0.4	29.3	-7.83	-5.07	999.96	-9.52	-1.22	1003.44		-1.69	3.85	3.48			
336	-0.3	0.4	29.3	-7.82	-5.22	999.96	-9.52	-1.22	1003.44		-1.7	4	3.48			
337	-0.3	0.4	29.3	-7.82	-5.13	999.96	-9.77	-6.84	1007.34		-1.95	-1.71	7.38			
338	-0.3	0.4	29.3	-7.82	-5.13	999.96	-9.77	-6.84	1007.34		-1.95	-1.71	7.38			
339	-0.3	0.4	29.3	-7.82	-5.13	999.96	-5.86	-1.95	1001.24		1.96	3.18	1.28			
340	-0.3	0.5	29.3	-7.99	-5.23	999.95	-4.39	-2.44	1001.48		3.6	2.79	1.53			
341	-0.3	0.5	29.3	-7.99	-5.23	999.95	-4.39	-2.44	1001.48		3.6	2.79	1.53			
342	-0.3	0.5	29.3	-7.92	-5.2	999.96	-9.28	-2.2	1001.48		-1.36	3	1.52			
343	-0.3	0.5	29.3	-7.98	-5.19	999.95	-11.47	-7.08	1000.26		-3.49	-1.89	0.31			
344	-0.3	0.5	29.3	-7.98	-5.19	999.95	-11.47	-7.08	1000.26		-3.49	-1.89	0.31			
345	-0.3	0.5	29.2	-8.14	-5.11	999.95	-10.25	-8.54	1002.95		-2.11	-3.43	3			
346	-0.3	0.5	29.2	-8.14	-5.11	999.95	-10.25	-8.54	1002.95		-2.11	-3.43	3			
347	-0.3	0.5	29.2	-8.14	-5.11	999.95	-6.35	-4.64	1005.39		1.79	0.47	5.44			
348	-0.3	0.5	29.2	-8.17	-5.17	999.95	-18.55	-7.57	1000.51		-10.38	-2.4	0.56			
349	-0.3	0.5	29.2	-8.15	-5.2	999.95	-18.55	-7.57	1000.51		-10.4	-2.37	0.56			
350	-0.3	0.5	29.2	-8.15	-5.2	999.95	-9.77	-9.03	1004.41		-1.62	-3.83	4.46			
351	-0.3	0.5	29.2	-8.17	-5.33	999.95	-12.94	-7.32	1001.97		-4.77	-1.99	2.02			
352	-0.3	0.5	29.2	-8.17	-5.33	999.95	-12.94	-7.32	1001.97		-4.77	-1.99	2.02			
353	-0.3	0.5	29.2	-8.19	-5.37	999.95	-9.52	-2.2	1000.51		-1.33	3.17	0.56			
354	-0.3	0.5	29.2	-8.26	-5.39	999.95	-9.52	-2.2	1000.51		-1.26	3.19	0.56			
355	-0.3	0.5	29.2	-8.26	-5.39	999.95	-10.5	-5.62	1001.24		-2.24	-0.23	1.29			
356	-0.3	0.5	29.3	-8.34	-5.46	999.95	-9.03	-5.62	1002.95		-0.69	-0.16	3			
357	-0.3	0.5	29.3	-8.34	-5.46	999.95	-9.03	-5.62	1002.95		-0.69	-0.16	3			
358	-0.3	0.5	29.3	-8.34	-5.46	999.95	-7.32	-1.95	1003.68		1.02	3.51	3.73			
359	-0.3	0.5	29.3	-8.48	-5.42	999.95	-8.79	0.73	1004.17		-0.31	6.15	4.22			
360	-0.3	0.5	29.3	-8.48	-5.59	999.95	-8.79	0.73	1004.17		-0.31	6.32	4.22			
361	-0.3	0.5	29.3	-8.52	-5.52	999.95	-7.81	-1.71	1004.41		0.71	3.81	4.46			
362	-0.3	0.5	29.3	-8.52	-5.52	999.95	-7.81	-1.71	1004.41		0.71	3.81	4.46			
363	-0.3	0.5	29.3	-8.52	-5.52	999.95	-5.62	-2.69	1006.61		2.9	2.83	6.66			
364	-0.3	0.5	29.3	-8.4	-5.49	999.95	-10.99	-10.01	1006.12		-2.59	-4.52	6.17			
365	-0.3	0.5	29.3	-8.4	-5.49	999.95	-10.99	-10.01	1006.12		-2.59	-4.52	6.17			
366	-0.3	0.5	29.3	-8.48	-5.43	999.95	-5.86	-8.79	1002.46		2.62	-3.36	2.51			
367	-0.3	0.5	29.3	-8.48	-5.46	999.95	-8.79	-5.13	1004.66		-0.31	0.33	4.71			
368	-0.3	0.5	29.3	-8.48	-5.46	999.95	-8.79	-5.13	1004.66		-0.31	0.33	4.71			
369	-0.3	0.5	29.2	-8.37	-5.54	999.95	-4.64	-2.93	1002.95		3.73	2.61	3			
370	-0.3	0.5	29.2	-8.37	-5.54	999.95	-4.64	-2.93	1002.95		3.73	2.61	3			
371	-0.3	0.5	29.2	-8.37	-5.54	999.95	-16.85	-5.86	1005.15		-8.48	-0.32	5.2			
372	-0.3	0.5	29.3	-8.27	-5.64	999.95	-5.13	-1.95	1004.41		3.14	3.69	4.46			
373	-0.3	0.5	29.3	-8.28	-5.62	999.95	-5.13	-1.95	1004.41		3.15	3.67	4.46			
374	-0.3	0.5	29.3	-8.28	-5.62	999.95	-10.74	-3.17	1002.46		-2.46	2.45	2.51			
375	-0.3	0.5	29.3	-8.34	-5.72	999.95	-8.79	-10.01	1004.66		-0.45	-4.29	4.71			
376	-0.3	0.5	29.3	-8.34	-5.72	999.95	-8.79	-10.01	1004.66		-0.45	-4.29	4.71			
377	-0.3	0.5	29.3	-8.36	-5.67	999.95	-7.08	-4.39	1003.68		1.28	1.28	3.73			
378	-0.3	0.5	29.2	-8.38	-5.65	999.95	-7.08	-4.39	1003.68		1.3	1.26	3.73			
379	-0.3	0.5	29.2	-8.38	-5.65	999.95	-16.85	-1.71	1005.15		-8.47	3.94	5.2			
380	-0.3	0.5	29.3	-8.39	-5.67	999.95	-8.06	-8.54	1002.95		0.33	-2.87	3			
381	-0.3	0.5	29.3	-8.39	-5.67	999.95	-8.06	-8.54	1002.95		0.33	-2.87	3			
382	-0.3	0.5	29.3	-8.39	-5.67	999.95	-6.35	-6.59	1004.17		2.04	-0.92	4.22			
383	-0.3	0.5	29.3	-8.42	-5.63	999.95	-10.74	-0.73	1001.24		-2.32	4.9	1.29			
384	-0.3	0.5	29.3	-8.5	-5.46	999.95	-10.74	-0.73	1001.24		-2.24	4.73	1.29			
385	-0.3	0.5	29.3	-8.42	-5.6	999.95	-5.86	-7.81	1003.44		2.56	-2.21	3.49			
386	-0.3	0.5	29.3	-8.42	-5.6	999.95	-5.86	-7.81	1003.44		2.56	-2.21	3.49			
387	-0.3	0.5	29.3	-8.42	-5.6	999.95	-9.28	-6.35	1003.44		-0.86	-0.75	3.49			
388	-0.3	0.5	29.3	-8.26	-5.5	999.95	-10.99	-0.73	1009.79		-2.73	4.77	9.84			
389	-0.3	0.5	29.3	-8.26	-5.5	999.95	-10.99	-0.73	1009.79		-2.73	4.77	9.84			
390	-0.3	0.5	29.3	-8.39	-5.55	999.95	-10.25	-4.88	1006.12		-1.86	0.67	6.17			
391	-0.3	0.5	29.3	-8.41	-5.55	999.95	-8.79	0	1001.48		-0.38	5.55	1.53			
392	-0.3	0.5	29.3	-8.41	-5.55	999.95	-8.79	0	1001.48		-0.38	5.55	1.53			
393	-0.3	0.5	29.3	-8.41	-5.55	999.95	-5.13	-0.73	1002.71		3.28	4.82	2.76			
394	-0.3	0.5	29.3	-8.42	-5.54	999.95	-9.03	-6.84	1003.44		-0.61	-1.3	3.49			
395	-0.3	0.5	29.3	-8.42	-5.54	999.95	-9.03	-6.84	1003.44		-0.61	-1.3	3.49			
396	-0.3	0.5	29.2	-8.35	-5.67	999.95	-15.38	-7.32	1011.49		-7.03	-1.65	11.54			
397	-0.3	0.5	29.2	-8.41	-5.68	999.95	-15.38	-7.32	1011.49		-6.97	-1.64	11.54			
398	-0.3	0.5	29.2	-8.41	-5.68	999.95	-6.35	-13.92	1003.93		2.06	-8.24	3.98			
399	-0.3	0.5	29.2	-8.42	-5.64	999.95	-10.5	-10.01	1001.97		-2.08	-4.37	2.02			
400	-0.3	0.5	29.2	-8.42	-5.64	999.95	-10.5	-10.01	1001.97		-2.08	-4.37	2.02			
401	-0.3	0.5	29.2	-8.43	-5.64	999.95	-7.32	-8.3	1001		1.11	-2.66	1.05			
402	-0.3	0.5	29.2	-8.34	-5.66	999.95	-7.32	-8.3	1001		1.02	-2.64	1.05			
403	-0.3	0.5	29.2	-8.34	-5.66	999.95	-5.86	-4.88	1005.63		2.48	0.78	5.68			
404	-0.3	0.5	29.2	-8.34	-5.67	999.95	-15.38	-9.77	1000.51		-7.04	-4.1	0.56			
405	-0.3	0.5	29.2	-8.34	-5.67	999.95	-15.38	-9.77	1000.51		-7.04	-4.1	0.56			
406	-0.3	0.5	29.2	-8.34	-5.67	999.95	-11.72	-4.15	1006.61		-3.38	1.52	6.66			
407	-0.3	0.5	29.2	-8.36	-5.62	999.95	-6.59	-6.84	1005.39		1.77	-1.22	5.44			
408	-0.3	0.5	29.2	-8.41	-5.64	999.95	-6.59	-6.84	1005.39		1.82	-1.2	5.44			
409	-0.3	0.5	29.2	-8.49	-5.58	999.95	-9.52	-9.77	1009.3		-1.03	-4.19	9.35			
410	-0.3	0.5	29.2	-8.49	-5.58	999.95	-9.52	-9.77	1009.3		-1.03	-4.19	9.35			
411	-0.3	0.5	29.2	-8.49	-5.58	999.95	-12.21	-5.13	1004.41		-3.72	0.45	4.46			
412	-0.3	0.5	29.2	-8.45	-5.58	999.95	-8.79	-6.84	1003.44		-0.34	-1.26	3.49			
413	-0.3	0.5	29.2	-8.45	-5.58	999.95	-8.79	-6.84	1003.44		-0.34	-1.26	3.49			
414	-0.3	0.5	29.2	-8.48	-5.51	999.95	-8.06	-6.84	1004.9		0.42	-1.33	4.95			
415	-0.3	0.5	29.2	-8.55	-5.4	999.95	-6.59	-3.17	1002.46		1.96	2.23	2.51			
416	-0.3	0.5	29.2	-8.55	-5.4	999.95	-6.59	-3.17	1002.46		1.96	2.23	2.51			
417	-0.3	0.5	29.2	-8.52	-5.5	999.95	-10.5	-5.37	1001.73		-1.98	0.13	1.78			
418	-0.3	0.5	29.2	-8.52	-5.5	999.95	-10.5	-5.37	1001.73		-1.98	0.13	1.78			
419	-0.3	0.5	29.2	-8.52	-5.5	999.95	-11.72	-3.42	1004.66		-3.2	2.08	4.71			
420	-0.3	0.5	29.2	-8.51	-5.5	999.95	-8.3	-6.1	1005.88		0.21	-0.6	5.93			
421	-0.3	0.5	29.2	-8.46	-5.46	999.95	-8.3	-6.1	1005.88		0.16	-0.64	5.93			
422	-0.3	0.5	29.2	-8.46	-5.46	999.95	-9.28	-2.69	1005.39		-0.82	2.77	5.44			
423	-0.3	0.5	29.2	-8.41	-5.47	999.95	-10.5	-8.3	1006.61		-2.09	-2.83	6.66			
424	-0.3	0.5	29.2	-8.41	-5.47	999.95	-10.5	-8.3	1006.61		-2.09	-2.83	6.66			
425	-0.3	0.5	29.2	-8.41	-5.55	999.95	-8.3	-8.79	1005.39		0.11	-3.24	5.44			
426	-0.3	0.5	29.2	-8.34	-5.58	999.95	-8.3	-8.79	1005.39		0.04	-3.21	5.44			
427	-0.3	0.5	29.2	-8.34	-5.58	999.95	-5.13	-8.06	1007.59		3.21	-2.48	7.64			
428	-0.3	0.5	29.3	-8.38	-5.63	999.95	-7.81	-7.57	999.53		0.57	-1.94	-0.42			
429	-0.3	0.5	29.3	-8.38	-5.63	999.95	-7.81	-7.57	999.53		0.57	-1.94	-0.42			
430	-0.3	0.5	29.3	-8.38	-5.63	999.95	-6.1	-8.3	1006.37		2.28	-2.67	6.42			
431	-0.3	0.5	29.2	-8.39	-5.6	999.95	-6.84	-2.69	1001.73		1.55	2.91	1.78			
432	-0.3	0.5	29.2	-8.32	-5.63	999.95	-6.84	-2.69	1001.73		1.48	2.94	1.78			
433	-0.3	0.5	29.2	-8.32	-5.63	999.95	-9.28	-2.2	1003.19		-0.96	3.43	3.24			
434	-0.3	0.5	29.2	-8.35	-5.52	999.95	-6.1	-8.3	999.29		2.25	-2.78	-0.66			
435	-0.3	0.5	29.2	-8.35	-5.52	999.95	-6.1	-8.3	999.29		2.25	-2.78	-0.66			
436	-0.3	0.5	29.2	-8.33	-5.5	999.95	-9.77	-5.37	1001.24		-1.44	0.13	1.29			
437	-0.3	0.5	29.2	-8.33	-5.5	999.95	-9.77	-5.37	1001.24		-1.44	0.13	1.29			
438	-0.3	0.5	29.2	-8.23	-5.45	999.95	-8.54	-8.54	1005.15		-0.31	-3.09	5.2			
439	-0.3	0.5	29.2	-8.26	-5.44	999.95	-12.7	-3.66	1005.15		-4.44	1.78	5.2			
440	-0.3	0.5	29.2	-8.26	-5.44	999.95	-12.7	-3.66	1005.15		-4.44	1.78	5.2			
441	-0.3	0.5	29.2	-8.26	-5.44	999.95	-3.42	-6.35	1007.1		4.84	-0.91	7.15			
442	-0.3	0.5	29.2	-8.21	-5.3	999.95	-8.3	3.66	1003.68		-0.09	8.96	3.73			
443	-0.3	0.5	29.2	-8.21	-5.3	999.95	-8.3	3.66	1003.68		-0.09	8.96	3.73			
444	-0.3	0.5	29.2	-8.22	-5.31	999.95	-6.1	-4.88	1005.15		2.12	0.43	5.2			
445	-0.3	0.5	29.2	-8.17	-5.31	999.95	-6.1	-4.88	1005.15		2.07	0.43	5.2			
446	-0.3	0.5	29.2	-8.17	-5.31	999.95	-11.47	-3.91	1004.66		-3.3	1.4	4.71			
447	-0.3	0.5	29.2	-8.24	-5.35	999.95	-11.72	-8.06	1002.71		-3.48	-2.71	2.76			
448	-0.3	0.5	29.2	-8.24	-5.35	999.95	-11.72	-8.06	1002.71		-3.48	-2.71	2.76			
449	-0.3	0.5	29.2	-8.24	-5.35	999.95	-7.08	-5.37	1006.12		1.16	-0.02	6.17			
450	-0.3	0.5	29.2	-8.12	-5.31	999.95	-6.84	-1.46	1003.44		1.28	3.85	3.49			
451	-0.3	0.5	29.2	-8.24	-5.39	999.95	-6.84	-1.46	1003.44		1.4	3.93	3.49			
452	-0.3	0.5	29.2	-8.28	-5.37	999.95	-10.01	-3.17	1003.44		-1.73	2.2	3.49			
453	-0.3	0.5	29.2	-8.28	-5.37	999.95	-10.01	-3.17	1003.44		-1.73	2.2	3.49			
454	-0.3	0.5	29.2	-8.28	-5.37	999.95	-3.42	-7.57	1004.17		4.86	-2.2	4.22			
455	-0.3	0.5	29.2	-8.25	-5.4	999.95	-8.54	-10.74	999.53		-0.29	-5.34	-0.42			
456	-0.3	0.5	29.2	-8.24	-5.34	999.95	-8.54	-10.74	999.53		-0.3	-5.4	-0.42			
457	-0.3	0.5	29.2	-8.24	-5.34	999.95	-13.67	-0.98	1000.51		-5.43	4.36	0.56			
458	-0.3	0.5	29.2	-8.3	-5.31	999.95	-10.5	-5.62	1004.9		-2.2	-0.31	4.95			
459	-0.3	0.5	29.2	-8.3	-5.31	999.95	-10.5	-5.62	1004.9		-2.2	-0.31	4.95			
460	-0.3	0.5	29.3	-8.31	-5.4	999.95	-8.54	-3.17	999.78		-0.23	2.23	-0.17			
461	-0.3	0.5	29.3	-8.31	-5.4	999.95	-8.54	-3.17	999.78		-0.23	2.23	-0.17			
462	-0.3	0.5	29.3	-8.24	-5.41	999.95	-13.18	-5.86	1007.34		-4.94	-0.45	7.39			
463	-0.3	0.5	29.3	-8.39	-5.39	999.95	-6.84	1.71	1002.95		1.55	7.1	3			
464	-0.3	0.5	29.3	-8.39	-5.39	999.95	-6.84	1.71	1002.95		1.55	7.1	3			
465	-0.3	0.5	29.3	-8.39	-5.39	999.95	-14.16	-4.88	1007.34		-5.77	0.51	7.39			
466	-0.3	0.5	29.3	-8.39	-5.31	999.95	-10.01	-9.77	1003.44		-1.62	-4.46	3.49			
467	-0.3	0.5	29.3	-8.39	-5.31	999.95	-10.01	-9.77	1003.44		-1.62	-4.46	3.49			
468	-0.3	0.5	29.3	-8.29	-5.26	999.95	-9.77	-3.17	995.38		-1.48	2.09	-4.57			
469	-0.3	0.5	29.3	-8.3	-5.2	999.95	-9.77	-3.17	995.38		-1.47	2.03	-4.57			
470	-0.3	0.5	29.3	-8.3	-5.2	999.95	-12.45	0.73	1008.56		-4.15	5.93	8.61			
471	-0.3	0.5	29.3	-8.36	-5.28	999.95	-10.01	-2.44	1006.12		-1.65	2.84	6.17			
472	-0.3	0.5	29.3	-8.36	-5.28	999.95	-10.01	-2.44	1006.12		-1.65	2.84	6.17			
473	-0.3	0.5	29.3	-8.36	-5.28	999.95	-9.77	1.22	1003.44		-1.41	6.5	3.49			
474	-0.3	0.5	29.3	-8.39	-5.22	999.95	-13.92	-11.72	1006.12		-5.53	-6.5	6.17			
475	-0.3	0.5	29.3	-8.47	-5.19	999.95	-13.92	-11.72	1006.12		-5.45	-6.53	6.17			
476	-0.3	0.5	29.3	-8.47	-5.19	999.95	-4.88	-3.17	1005.88		3.59	2.02	5.93			
477	-0.3	0.5	29.3	-8.5	-5.18	999.95	-8.06	-8.06	1007.59		0.44	-2.88	7.64			
478	-0.3	0.5	29.3	-8.5	-5.18	999.95	-8.06	-8.06	1007.59		0.44	-2.88	7.64			
479	-0.3	0.5	29.3	-8.48	-5.19	999.95	-4.39	-3.42	1004.41		4.09	1.77	4.46			
480	-0.3	0.5	29.3	-8.45	-5.16	999.95	-4.39	-3.42	1004.41		4.06	1.74	4.46			
481	-0.3	0.5	29.3	-8.45	-5.16	999.95	-8.79	-9.77	1009.3		-0.34	-4.61	9.35			
482	-0.3	0.5	29.3	-8.41	-5.14	999.95	-0.98	-5.13	1006.37		7.43	0.01	6.42			
483	-0.3	0.5	29.3	-8.41	-5.14	999.95	-0.98	-5.13	1006.37		7.43	0.01	6.42			
484	-0.3	0.5	29.3	-8.41	-5.14	999.95	-6.84	-6.1	1008.08		1.57	-0.96	8.13			
485	-0.3	0.5	29.3	-8.5	-5.22	999.95	-11.72	-5.62	1005.63		-3.22	-0.4	5.68			
486	-0.3	0.5	29.3	-8.44	-5.17	999.95	-11.72	-5.62	1005.63		-3.28	-0.45	5.68			
487	-0.3	0.5	29.3	-8.37	-4.99	999.95	-11.72	-1.71	1006.12		-3.35	3.28	6.17			
488	-0.3	0.5	29.3	-8.37	-4.99	999.95	-11.72	-1.71	1006.12		-3.35	3.28	6.17			
489	-0.3	0.5	29.3	-8.37	-4.99	999.95	-14.16	-8.06	1002.46		-5.79	-3.07	2.51			
490	-0.3	0.5	29.3	-8.34	-5.05	999.95	-11.23	-7.57	1002.95		-2.89	-2.52	3			
491	-0.3	0.5	29.3	-8.34	-5.05	999.95	-11.23	-7.57	1002.95		-2.89	-2.52	3			
492	-0.3	0.5	29.3	-8.33	-4.94	999.95	-7.57	-3.17	1007.34		0.76	1.77	7.39			
493	-0.3	0.5	29.3	-8.27	-4.92	999.95	-7.57	-3.17	1007.34		0.7	1.75	7.39			
494	-0.3	0.5	29.3	-8.27	-4.92	999.95	-7.08	-4.39	1000.02		1.19	0.53	0.07			
495	-0.3	0.5	29.4	-8.3	-4.97	999.95	-5.86	-5.13	1009.05		2.44	-0.16	9.1			
496	-0.3	0.5	29.4	-8.3	-4.97	999.95	-5.86	-5.13	1009.05		2.44	-0.16	9.1			
497	-0.3	0.5	29.4	-8.3	-4.97	999.95	-6.35	-2.69	1002.95		1.95	2.28	3			
498	-0.3	0.5	29.3	-8.35	-5.11	999.95	-4.88	-5.13	1006.12		3.47	-0.02	6.17			
499	-0.3	0.5	29.3	-8.3	-5.08	999.95	-4.88	-5.13	1006.12		3.42	-0.05	6.17			
500	-0.3	0.5	29.3	-8.3	-5.08	999.95	-10.01	-2.93	1004.41		-1.71	2.15	4.46			
501	-0.3	0.5	29.3	-8.26	-4.84	999.95	-5.62	0	1002.95		2.64	4.84	3			
502	-0.3	0.5	29.3	-8.26	-4.84	999.95	-5.62	0	1002.95		2.64	4.84	3			
503	-0.3	0.5	29.3	-8.32	-4.79	999.95	-6.1	-2.2	1011.49		2.22	2.59	11.54			
504	-0.3	0.5	29.3	-8.32	-4.83	999.95	-6.1	-2.2	1011.49		2.22	2.63	11.54			
505	-0.3	0.5	29.3	-8.32	-4.83	999.95	-4.39	-6.1	1004.9		3.93	-1.27	4.95			
506	-0.3	0.5	29.3	-8.41	-4.87	999.95	-9.28	0.73	1002.46		-0.87	5.6	2.51			
507	-0.3	0.5	29.3	-8.41	-4.87	999.95	-9.28	0.73	1002.46		-0.87	5.6	2.51			
508	-0.3	0.5	29.3	-8.41	-4.87	999.95	-9.52	-6.59	1004.17		-1.11	-1.72	4.22			
509	-0.3	0.5	29.3	-8.34	-4.6	999.95	-14.4	-3.91	1002.22		-6.06	0.69	2.27			
510	-0.3	0.5	29.3	-8.32	-4.61	999.95	-14.4	-3.91	1002.22		-6.08	0.7	2.27			
511	-0.3	0.5	29.3	-8.29	-4.53	999.96	-11.23	-0.24	1001.97		-2.94	4.29	2.01			
512	-0.3	0.5	29.3	-8.29	-4.53	999.96	-11.23	-0.24	1001.97		-2.94	4.29	2.01			
513	-0.3	0.5	29.3	-8.29	-4.53	999.96	-11.23	-10.74	1008.08		-2.94	-6.21	8.12			
514	-0.3	0.5	29.3	-8.3	-4.51	999.96	-13.92	-7.08	1003.93		-5.62	-2.57	3.97			
515	-0.3	0.5	29.3	-8.3	-4.51	999.96	-13.92	-7.08	1003.93		-5.62	-2.57	3.97			
516	-0.3	0.5	29.3	-8.3	-4.48	999.96	-10.99	-4.15	1002.71		-2.69	0.33	2.75			
517	-0.2	0.5	29.3	-8.31	-4.32	999.96	-10.01	0.73	1008.08		-1.7	5.05	8.12			
518	-0.2	0.5	29.3	-8.31	-4.32	999.96	-10.01	0.73	1008.08		-1.7	5.05	8.12			
519	-0.2	0.5	29.3	-8.3	-4.24	999.96	-9.52	-1.71	1007.1		-1.22	2.53	7.14			
520	-0.2	0.5	29.3	-8.3	-4.24	999.96	-9.52	-1.71	1007.1		-1.22	2.53	7.14			
521	-0.2	0.5	29.3	-8.3	-4.24	999.96	-6.59	-0.24	1002.95		1.71	4	2.99			
522	-0.2	0.5	29.3	-8.3	-4.27	999.96	-8.06	-4.15	1001.97		0.24	0.12	2.01			
523	-0.2	0.5	29.3	-8.23	-4.25	999.96	-8.06	-4.15	1001.97		0.17	0.1	2.01			
524	-0.2	0.5	29.3	-8.23	-4.25	999.96	-6.59	0	1005.15		1.64	4.25	5.19			
525	-0.2	0.5	29.3	-8.21	-4.32	999.96	-9.77	-7.32	1005.15		-1.56	-3	5.19			
526	-0.2	0.5	29.3	-8.21	-4.32	999.96	-9.77	-7.32	1005.15		-1.56	-3	5.19			
527	-0.2	0.5	29.4	-8.16	-4.31	999.96	-11.96	-3.17	1004.66		-3.8	1.14	4.7			
528	-0.2	0.5	29.4	-8.07	-4.24	999.96	-11.96	-3.17	1004.66		-3.89	1.07	4.7			
529	-0.2	0.5	29.4	-8.07	-4.24	999.96	-12.45	-2.69	1004.41		-4.38	1.55	4.45			
530	-0.2	0.5	29.4	-8.15	-4.21	999.96	-10.01	-3.17	1002.46		-1.86	1.04	2.5			
531	-0.2	0.5	29.4	-8.15	-4.21	999.96	-10.01	-3.17	1002.46		-1.86	1.04	2.5			
532	-0.2	0.5	29.4	-8.15	-4.21	999.96	-5.86	-2.2	1005.88		2.29	2.01	5.92			
533	-0.2	0.5	29.4	-8.1	-4.31	999.96	-7.57	-5.62	1006.12		0.53	-1.31	6.16			
534	-0.2	0.5	29.4	-8.13	-4.32	999.96	-7.57	-5.62	1006.12		0.56	-1.3	6.16			
535	-0.2	0.5	29.4	-7.96	-4.34	999.96	-8.06	-2.69	1006.61		-0.1	1.65	6.65			
536	-0.2	0.5	29.4	-7.96	-4.34	999.96	-8.06	-2.69	1006.61		-0.1	1.65	6.65			
537	-0.2	0.5	29.4	-7.96	-4.34	999.96	-10.99	-3.17	1002.46		-3.03	1.17	2.5			
538	-0.2	0.4	29.4	-7.8	-4.19	999.96	-7.08	-6.1	999.29		0.72	-1.91	-0.67			
539	-0.2	0.4	29.4	-7.8	-4.19	999.96	-7.08	-6.1	999.29		0.72	-1.91	-0.67			
540	-0.2	0.5	29.4	-7.88	-4.18	999.96	-8.06	0.24	1006.61		-0.18	4.42	6.65			
541	-0.2	0.4	29.4	-7.8	-4.18	999.96	-9.77	-6.1	1003.19		-1.97	-1.92	3.23			
542	-0.2	0.4	29.4	-7.8	-4.18	999.96	-9.77	-6.1	1003.19		-1.97	-1.92	3.23			
543	-0.2	0.4	29.4	-7.8	-4.18	999.96	-9.28	-2.69	1003.44		-1.48	1.49	3.48			
544	-0.2	0.4	29.4	-7.77	-4.35	999.96	-7.57	0.49	1003.93		0.2	4.84	3.97			
545	-0.2	0.4	29.4	-7.77	-4.35	999.96	-7.57	0.49	1003.93		0.2	4.84	3.97			
546	-0.2	0.4	29.4	-7.84	-4.22	999.96	-5.86	-4.15	1002.71		1.98	0.07	2.75			
547	-0.2	0.4	29.4	-7.85	-4.21	999.96	-5.86	-4.15	1002.71		1.99	0.06	2.75			
548	-0.2	0.4	29.4	-7.85	-4.21	999.96	-1.46	-5.37	1008.81		6.39	-1.16	8.85			
549	-0.2	0.4	29.4	-7.79	-4.19	999.96	-8.3	-11.72	1005.39		-0.51	-7.53	5.43			
550	-0.2	0.4	29.4	-7.79	-4.19	999.96	-8.3	-11.72	1005.39		-0.51	-7.53	5.43			
551	-0.2	0.4	29.4	-7.79	-4.19	999.96	-1.71	-1.71	1003.93		6.08	2.48	3.97			
552	-0.2	0.4	29.4	-7.8	-4.19	999.96	-13.18	-4.39	1004.9		-5.38	-0.2	4.94			
553	-0.2	0.4	29.4	-7.8	-4.22	999.96	-13.18	-4.39	1004.9		-5.38	-0.17	4.94			
554	-0.3	0.4	29.4	-7.75	-4.38	999.96	-9.52	-0.98	1002.46		-1.77	3.4	2.5			
555	-0.3	0.4	29.4	-7.75	-4.38	999.96	-9.52	-0.98	1002.46		-1.77	3.4	2.5			
556	-0.3	0.4	29.4	-7.75	-4.38	999.96	-11.96	-11.96	1005.63		-4.21	-7.58	5.67			
557	-0.3	0.4	29.4	-7.72	-4.42	999.96	-9.03	-0.73	999.29		-1.31	3.69	-0.67			
558	-0.2	0.4	29.4	-7.78	-4.36	999.96	-9.03	-0.73	999.29		-1.25	3.63	-0.67			
559	-0.2	0.4	29.4	-7.78	-4.36	999.96	-9.03	-1.95	1004.66		-1.25	2.41	4.7			
560	-0.2	0.4	29.4	-7.73	-4.35	999.96	-1.95	-3.66	1001.97		5.78	0.69	2.01			
561	-0.2	0.4	29.4	-7.73	-4.35	999.96	-1.95	-3.66	1001.97		5.78	0.69	2.01			
562	-0.2	0.4	29.4	-7.72	-4.34	999.96	-7.32	-2.93	1003.19		0.4	1.41	3.23			
563	-0.2	0.4	29.4	-7.72	-4.34	999.96	-7.32	-2.93	1003.19		0.4	1.41	3.23			
564	-0.3	0.4	29.4	-7.75	-4.39	999.96	-6.35	-7.32	1007.34		1.4	-2.93	7.38			
565	-0.3	0.4	29.4	-7.67	-4.58	999.96	-3.91	-2.44	1010.03		3.76	2.14	10.07			
566	-0.3	0.4	29.4	-7.67	-4.58	999.96	-3.91	-2.44	1010.03		3.76	2.14	10.07			
567	-0.3	0.4	29.4	-7.67	-4.58	999.96	-14.16	-8.3	1005.39		-6.49	-3.72	5.43			
568	-0.3	0.4	29.4	-7.62	-4.7	999.96	-6.59	-0.73	1007.1		1.03	3.97	7.14			
569	-0.3	0.4	29.4	-7.62	-4.7	999.96	-6.59	-0.73	1007.1		1.03	3.97	7.14			
570	-0.3	0.4	29.4	-7.69	-4.71	999.96	-4.88	-3.42	1002.71		2.81	1.29	2.75			
571	-0.3	0.4	29.4	-7.54	-4.75	999.96	-4.88	-3.42	1002.71		2.66	1.33	2.75			
572	-0.3	0.4	29.4	-7.54	-4.75	999.96	-10.5	-7.81	1004.41		-2.96	-3.06	4.45			
573	-0.3	0.4	29.3	-7.62	-4.78	999.96	-5.13	-1.71	1001.48		2.49	3.07	1.52			
574	-0.3	0.4	29.3	-7.62	-4.78	999.96	-5.13	-1.71	1001.48		2.49	3.07	1.52			
575	-0.3	0.4	29.3	-7.62	-4.78	999.96	-7.81	-5.62	1006.37		-0.19	-0.84	6.41			
576	-0.3	0.4	29.3	-7.65	-4.7	999.96	-10.74	-1.22	1006.86		-3.09	3.48	6.9			
577	-0.3	0.4	29.3	-7.73	-4.69	999.96	-10.74	-1.22	1006.86		-3.01	3.47	6.9			
578	-0.3	0.4	29.3	-7.73	-4.87	999.96	-5.86	-5.86	1003.44		1.87	-0.99	3.48			
579	-0.3	0.4	29.3	-7.73	-4.87	999.96	-5.86	-5.86	1003.44		1.87	-0.99	3.48			
580	-0.3	0.4	29.3	-7.73	-4.87	999.96	-8.54	-2.69	1011.01		-0.81	2.18	11.05			
581	-0.3	0.4	29.3	-7.78	-4.86	999.96	-10.25	-3.66	1004.66		-2.47	1.2	4.7			
582	-0.3	0.5	29.3	-7.86	-4.83	999.96	-10.25	-3.66	1004.66		-2.39	1.17	4.7			
583	-0.3	0.5	29.3	-7.86	-4.83	999.96	-6.84	-6.59	1005.88		1.02	-1.76	5.92			
584	-0.3	0.5	29.3	-7.87	-4.81	999.96	-5.62	-0.24	1005.88		2.25	4.57	5.92			
585	-0.3	0.5	29.3	-7.87	-4.81	999.96	-5.62	-0.24	1005.88		2.25	4.57	5.92			
586	-0.3	0.5	29.3	-7.87	-4.81	999.96	-10.5	-2.44	998.31		-2.63	2.37	-1.65			
587	-0.3	0.5	29.3	-7.9	-4.75	999.96	-10.5	-4.88	1007.83		-2.6	-0.13	7.87			
588	-0.3	0.5	29.3	-7.87	-4.81	999.96	-10.5	-4.88	1007.83		-2.63	-0.07	7.87			
589	-0.3	0.5	29.3	-7.97	-4.58	999.96	-9.28	-6.84	1004.17		-1.31	-2.26	4.21			
590	-0.3	0.5	29.3	-7.97	-4.58	999.96	-9.28	-6.84	1004.17		-1.31	-2.26	4.21			
591	-0.3	0.5	29.3	-7.97	-4.58	999.96	-13.92	-3.91	1007.59		-5.95	0.67	7.63			
592	-0.3	0.5	29.3	-8.02	-4.6	999.96	-8.06	-4.15	1007.34		-0.04	0.45	7.38			
593	-0.3	0.5	29.3	-8.02	-4.6	999.96	-8.06	-4.15	1007.34		-0.04	0.45	7.38			
594	-0.3	0.5	29.3	-8.02	-4.67	999.96	-3.42	-1.95	1003.44		4.6	2.72	3.48			
595	-0.3	0.5	29.3	-8.01	-4.69	999.96	-9.77	0	1004.9		-1.76	4.69	4.94			
596	-0.3	0.5	29.3	-8.01	-4.69	999.96	-9.77	0	1004.9		-1.76	4.69	4.94			
597	-0.3	0.5	29.3	-7.99	-4.67	999.96	-8.06	-11.47	1004.9		-0.07	-6.8	4.94			
598	-0.3	0.5	29.3	-7.99	-4.67	999.96	-8.06	-11.47	1004.9		-0.07	-6.8	4.94			
599	-0.3	0.5	29.3	-7.99	-4.67	999.96	-7.08	-6.35	1001.24		0.91	-1.68	1.28			
600	-0.3	0.5	29.3	-8	-4.71	999.96	-10.74	-3.17	1002.95		-2.74	1.54	2.99			
601	-0.3	0.5	29.3	-8.04	-4.79	999.96	-10.74	-3.17	1002.95		-2.7	1.62	2.99			
602	-0.3	0.5	29.3	-8.04	-4.79	999.96	-7.81	-4.64	1011.01		0.23	0.15	11.05			
603	-0.3	0.5	29.3	-8	-4.91	999.96	-5.37	-8.3	1005.15		2.63	-3.39	5.19			
604	-0.3	0.5	29.3	-8	-4.91	999.96	-5.37	-8.3	1005.15		2.63	-3.39	5.19			
605	-0.3	0.4	29.2	-7.84	-4.8	999.96	-4.88	-4.88	1001		2.96	-0.08	1.04			
606	-0.3	0.4	29.3	-7.83	-4.78	999.96	-4.88	-4.88	1001		2.95	-0.1	1.04			
607	-0.3	0.4	29.3	-7.83	-4.78	999.96	-8.54	-7.81	1004.66		-0.71	-3.03	4.7			
608	-0.3	0.5	29.3	-7.87	-4.73	999.96	-4.39	-3.91	1003.68		3.48	0.82	3.72			
609	-0.3	0.5	29.3	-7.87	-4.73	999.96	-4.39	-3.91	1003.68		3.48	0.82	3.72			
610	-0.3	0.5	29.3	-7.87	-4.73	999.96	-11.96	-4.64	1004.41		-4.09	0.09	4.45			
611	-0.3	0.5	29.3	-7.86	-4.75	999.96	-5.86	-5.13	1003.68		2	-0.38	3.72			
612	-0.3	0.5	29.3	-7.86	-4.79	999.96	-5.86	-5.13	1003.68		2	-0.34	3.72			
613	-0.3	0.5	29.3	-7.9	-4.77	999.96	-9.28	-1.22	1008.32		-1.38	3.55	8.36			
614	-0.3	0.5	29.3	-7.9	-4.77	999.96	-9.28	-1.22	1008.32		-1.38	3.55	8.36			
615	-0.3	0.5	29.3	-7.9	-4.77	999.96	-4.64	-3.66	1002.95		3.26	1.11	2.99			
616	-0.3	0.5	29.3	-8.03	-4.79	999.96	-3.91	-9.52	1006.12		4.12	-4.73	6.16			
617	-0.3	0.5	29.3	-8.04	-4.79	999.96	-3.91	-9.52	1006.12		4.13	-4.73	6.16			
618	-0.3	0.5	29.3	-8.04	-4.79	999.96	-10.5	-3.42	1000.02		-2.46	1.37	0.06			
619	-0.3	0.5	29.3	-8.04	-4.9	999.96	-5.13	-6.59	1003.44		2.91	-1.69	3.48			
620	-0.3	0.5	29.3	-8.04	-4.9	999.96	-5.13	-6.59	1003.44		2.91	-1.69	3.48			
621	-0.3	0.5	29.3	-8.07	-4.9	999.96	-8.06	-3.42	999.04		0.01	1.48	-0.92			
622	-0.3	0.5	29.3	-8.07	-4.9	999.96	-8.06	-3.42	999.04		0.01	1.48	-0.92			
623	-0.3	0.5	29.3	-8.07	-4.9	999.96	-8.54	-6.35	1006.12		-0.47	-1.45	6.16			
624	-0.3	0.5	29.3	-7.99	-5	999.96	-5.62	-3.17	1003.19		2.37	1.83	3.23			
625	-0.3	0.4	29.3	-7.85	-5.15	999.96	-5.62	-3.17	1003.19		2.23	1.98	3.23			
626	-0.3	0.4	29.3	-7.85	-5.15	999.96	-4.15	-5.86	1005.15		3.7	-0.71	5.19			
627	-0.3	0.5	29.3	-7.87	-5.15	999.96	-11.72	-5.37	1003.68		-3.85	-0.22	3.72			
628	-0.3	0.5	29.3	-7.87	-5.15	999.96	-11.72	-5.37	1003.68		-3.85	-0.22	3.72			
629	-0.3	0.5	29.3	-7.87	-5.17	999.96	-6.1	-10.74	1004.41		1.77	-5.57	4.45			
630	-0.3	0.4	29.3	-7.82	-5.13	999.96	-6.1	-10.74	1004.41		1.72	-5.61	4.45			
631	-0.3	0.4	29.3	-7.82	-5.13	999.96	-11.72	-3.91	1001.73		-3.9	1.22	1.77			
632	-0.3	0.4	29.3	-7.73	-5.26	999.96	-9.28	1.95	1004.41		-1.55	7.21	4.45			
633	-0.3	0.4	29.3	-7.73	-5.26	999.96	-9.28	1.95	1004.41		-1.55	7.21	4.45			
634	-0.3	0.4	29.3	-7.73	-5.26	999.96	-10.74	-7.81	1004.66		-3.01	-2.55	4.7			
635	-0.3	0.4	29.3	-7.73	-5.27	999.96	-7.57	-4.39	1004.9		0.16	0.88	4.94			
636	-0.3	0.4	29.3	-7.75	-5.23	999.96	-7.57	-4.39	1004.9		0.18	0.84	4.94			
637	-0.3	0.4	29.3	-7.75	-5.23	999.96	-2.44	-3.91	1003.19		5.31	1.32	3.23			
638	-0.3	0.4	29.3	-7.73	-5.21	999.96	-5.62	-7.08	1004.66		2.11	-1.87	4.7			
639	-0.3	0.4	29.3	-7.73	-5.21	999.96	-5.62	-7.08	1004.66		2.11	-1.87	4.7			
640	-0.3	0.4	29.3	-7.72	-5.07	999.96	-11.47	-6.59	1000.26		-3.75	-1.52	0.3			
641	-0.3	0.4	29.3	-7.72	-5.07	999.96	-11.47	-6.59	1000.26		-3.75	-1.52	0.3			
642	-0.3	0.4	29.3	-7.77	-5.15	999.96	-6.1	-6.59	1004.41		1.67	-1.44	4.45			
643	-0.3	0.4	29.4	-7.79	-5.13	999.96	-8.3	-2.93	1002.95		-0.51	2.2	2.99			
644	-0.3	0.4	29.4	-7.79	-5.13	999.96	-8.3	-2.93	1002.95		-0.51	2.2	2.99			
645	-0.3	0.4	29.4	-7.79	-5.13	999.96	-5.13	-1.46	1007.59		2.66	3.67	7.63			
646	-0.3	0.4	29.4	-7.76	-5.14	999.96	-5.37	-3.66	1003.93		2.39	1.48	3.97			
647	-0.3	0.4	29.4	-7.76	-5.14	999.96	-5.37	-3.66	1003.93		2.39	1.48	3.97			
648	-0.3	0.4	29.4	-7.68	-5.05	999.96	-7.81	-1.22	1005.15		-0.13	3.83	5.19			
649	-0.3	0.4	29.4	-7.79	-5.09	999.96	-7.81	-1.22	1005.15		-0.02	3.87	5.19			
650	-0.3	0.4	29.4	-7.79	-5.09	999.96	-4.88	-7.08	1004.41		2.91	-1.99	4.45			
651	-0.3	0.4	29.4	-7.71	-5.14	999.96	-4.88	0.73	1002.22		2.83	5.87	2.26			
652	-0.3	0.4	29.4	-7.71	-5.14	999.96	-4.88	0.73	1002.22		2.83	5.87	2.26			
653	-0.3	0.4	29.4	-7.71	-5.14	999.96	-10.5	-5.37	1012.23		-2.79	-0.23	12.27			
654	-0.3	0.4	29.4	-7.65	-5	999.96	-4.15	-5.62	1006.61		3.5	-0.62	6.65			
655	-0.3	0.4	29.4	-7.59	-4.98	999.96	-4.15	-5.62	1006.61		3.44	-0.64	6.65			
656	-0.3	0.4	29.4	-7.59	-5.02	999.96	-10.5	-7.32	1002.71		-2.91	-2.3	2.75			
657	-0.3	0.4	29.4	-7.59	-5.02	999.96	-10.5	-7.32	1002.71		-2.91	-2.3	2.75			
658	-0.3	0.4	29.4	-7.59	-5.02	999.96	-7.57	-9.03	1002.95		0.02	-4.01	2.99			
659	-0.3	0.4	29.4	-7.66	-5.07	999.96	-4.39	-1.22	999.78		3.27	3.85	-0.18			
660	-0.3	0.4	29.4	-7.66	-5.06	999.96	-4.39	-1.22	999.78		3.27	3.84	-0.18			
661	-0.3	0.4	29.4	-7.66	-5.06	999.96	-5.37	-10.99	1008.56		2.29	-5.93	8.6			
662	-0.3	0.4	29.4	-7.64	-5.03	999.96	-1.71	-5.13	1004.66		5.93	-0.1	4.7			
663	-0.3	0.4	29.4	-7.64	-5.03	999.96	-1.71	-5.13	1004.66		5.93	-0.1	4.7			
664	-0.3	0.4	29.4	-7.63	-5.05	999.96	-11.47	-1.95	1006.12		-3.84	3.1	6.16			
665	-0.3	0.4	29.4	-7.63	-5.05	999.96	-11.47	-1.95	1006.12		-3.84	3.1	6.16			
666	-0.3	0.4	29.4	-7.69	-5.04	999.96	-4.88	0.73	1003.68		2.81	5.77	3.72			
667	-0.3	0.4	29.4	-7.66	-5.04	999.96	-9.52	-2.69	1004.17		-1.86	2.35	4.21			
668	-0.3	0.4	29.4	-7.66	-5.04	999.96	-9.52	-2.69	1004.17		-1.86	2.35	4.21			
669	-0.3	0.4	29.4	-7.66	-5.04	999.96	-0.73	-2.2	1007.59		6.93	2.84	7.63			
670	-0.3	0.4	29.4	-7.65	-5.04	999.96	-14.65	-0.49	1003.93		-7	4.55	3.97			
671	-0.3	0.4	29.4	-7.65	-5.04	999.96	-14.65	-0.49	1003.93		-7	4.55	3.97			
672	-0.3	0.4	29.4	-7.67	-5.01	999.96	-6.84	-6.84	1004.9		0.83	-1.83	4.94			
673	-0.3	0.4	29.4	-7.73	-4.96	999.96	-6.84	-6.84	1004.9		0.89	-1.88	4.94			
674	-0.3	0.4	29.4	-7.73	-4.96	999.96	-13.18	-2.93	1010.03		-5.45	2.03	10.07			
675	-0.3	0.4	29.4	-7.67	-5.07	999.96	-6.1	-0.98	1004.41		1.57	4.09	4.45			
676	-0.3	0.4	29.4	-7.67	-5.07	999.96	-6.1	-0.98	1004.41		1.57	4.09	4.45			
677	-0.3	0.4	29.4	-7.67	-5.07	999.96	-8.79	-1.71	1006.61		-1.12	3.36	6.65			
678	-0.3	0.4	29.4	-7.54	-5.03	999.96	-7.81	-5.37	999.78		-0.27	-0.34	-0.18			
679	-0.3	0.4	29.4	-7.49	-4.67	999.96	-7.81	-5.37	999.78		-0.32	-0.7	-0.18			
680	-0.3	0.4	29.4	-7.49	-4.67	999.96	-10.99	-5.37	1007.34		-3.5	-0.7	7.38			
681	-0.3	0.4	29.4	-7.48	-4.46	999.96	-6.59	-5.13	1007.34		0.89	-0.67	7.38			
682	-0.3	0.4	29.4	-7.48	-4.46	999.96	-6.59	-5.13	1007.34		0.89	-0.67	7.38			
683	-0.3	0.4	29.4	-7.31	-4.38	999.96	-10.01	3.42	1004.17		-2.7	7.8	4.21			
684	-0.2	0.4	29.4	-7.36	-4.32	999.96	-10.01	3.42	1004.17		-2.65	7.74	4.21			
685	-0.2	0.4	29.4	-7.36	-4.32	999.96	-9.52	-7.08	1002.71		-2.16	-2.76	2.75			
686	-0.2	0.4	29.4	-7.2	-4.29	999.96	-9.28	-3.66	1003.44		-2.08	0.63	3.48			
687	-0.2	0.4	29.4	-7.2	-4.29	999.96	-9.28	-3.66	1003.44		-2.08	0.63	3.48			
688	-0.2	0.4	29.4	-7.2	-4.29	999.96	-6.59	-8.54	1010.52		0.61	-4.25	10.56			
689	-0.2	0.4	29.4	-7.15	-4.36	999.96	-7.32	-5.37	1006.12		-0.17	-1.01	6.16			
690	-0.2	0.4	29.3	-7.14	-4.27	999.97	-7.32	-5.37	1006.12		-0.18	-1.1	6.15			
691	-0.2	0.4	29.4	-7.18	-4.24	999.97	-10.01	-4.39	1006.37		-2.83	-0.15	6.4			
692	-0.2	0.4	29.4	-7.18	-4.24	999.97	-10.01	-4.39	1006.37		-2.83	-0.15	6.4			
693	-0.2	0.4	29.4	-7.18	-4.24	999.97	-6.35	-2.2	1003.44		0.83	2.04	3.47			
694	-0.2	0.4	29.4	-7.17	-4.26	999.97	-8.79	-8.54	1011.01		-1.62	-4.28	11.04			
695	-0.2	0.4	29.4	-7.17	-4.26	999.97	-8.79	-8.54	1011.01		-1.62	-4.28	11.04			
696	-0.3	0.4	29.4	-7.21	-4.37	999.96	-9.03	-4.39	1002.71		-1.82	-0.02	2.75			
697	-0.3	0.4	29.4	-7.2	-4.42	999.96	-1.71	-5.86	1004.41		5.49	-1.44	4.45			
698	-0.3	0.4	29.4	-7.2	-4.42	999.96	-1.71	-5.86	1004.41		5.49	-1.44	4.45			
699	-0.2	0.4	29.4	-7.18	-4.31	999.96	-5.13	-6.1	998.8		2.05	-1.79	-1.16			
700	-0.2	0.4	29.4	-7.18	-4.31	999.96	-5.13	-6.1	998.8		2.05	-1.79	-1.16			
701	-0.2	0.4	29.4	-7.18	-4.31	999.96	-9.28	-6.84	1007.1		-2.1	-2.53	7.14			
702	-0.3	0.4	29.4	-7.27	-4.44	999.96	-7.57	-4.88	1007.1		-0.3	-0.44	7.14			
703	-0.3	0.4	29.4	-7.24	-4.55	999.96	-7.57	-4.88	1007.1		-0.33	-0.33	7.14			
704	-0.3	0.4	29.4	-7.24	-4.55	999.96	-9.03	-10.01	1011.49		-1.79	-5.46	11.53			
705	-0.3	0.4	29.4	-7.11	-4.48	999.96	-11.72	0.24	1003.93		-4.61	4.72	3.97			
706	-0.3	0.4	29.4	-7.11	-4.48	999.96	-11.72	0.24	1003.93		-4.61	4.72	3.97			
707	-0.3	0.4	29.4	-7.11	-4.48	999.96	-11.47	-4.88	1005.39		-4.36	-0.4	5.43			
708	-0.3	0.4	29.4	-7.16	-4.45	999.96	-9.28	5.13	1011.01		-2.12	9.58	11.05			
709	-0.3	0.4	29.4	-7.26	-4.44	999.96	-9.28	5.13	1011.01		-2.02	9.57	11.05			
710	-0.3	0.4	29.4	-7.33	-4.39	999.96	-8.79	-1.46	1001.24		-1.46	2.93	1.28			
711	-0.3	0.4	29.4	-7.33	-4.39	999.96	-8.79	-1.46	1001.24		-1.46	2.93	1.28			
712	-0.3	0.4	29.4	-7.33	-4.39	999.96	-5.37	-3.42	1001.24		1.96	0.97	1.28			
713	-0.3	0.4	29.4	-7.36	-4.44	999.96	-10.25	-7.57	1008.32		-2.89	-3.13	8.36			
714	-0.3	0.4	29.4	-7.39	-4.38	999.96	-10.25	-7.57	1008.32		-2.86	-3.19	8.36			
715	-0.3	0.4	29.4	-7.39	-4.38	999.96	-6.35	-3.17	1002.22		1.04	1.21	2.26			
716	-0.2	0.4	29.4	-7.48	-4.3	999.96	-2.69	-3.66	1004.66		4.79	0.64	4.7			
717	-0.2	0.4	29.4	-7.48	-4.3	999.96	-2.69	-3.66	1004.66		4.79	0.64	4.7			
718	-0.2	0.4	29.4	-7.52	-4.27	999.96	-7.81	-7.57	1003.93		-0.29	-3.3	3.97			
719	-0.2	0.4	29.4	-7.52	-4.27	999.96	-7.81	-7.57	1003.93		-0.29	-3.3	3.97			
720	-0.2	0.4	29.4	-7.51	-4.26	999.96	-10.99	-5.37	1004.66		-3.48	-1.11	4.7			
721	-0.2	0.4	29.4	-7.45	-4.32	999.96	-6.1	-1.46	1006.37		1.35	2.86	6.41			
722	-0.2	0.4	29.4	-7.45	-4.32	999.96	-6.1	-1.46	1006.37		1.35	2.86	6.41			
723	-0.2	0.4	29.4	-7.45	-4.32	999.96	-7.32	-1.71	1003.19		0.13	2.61	3.23			
724	-0.2	0.4	29.4	-7.45	-4.22	999.96	-6.59	-2.69	1006.12		0.86	1.53	6.16			
725	-0.2	0.4	29.4	-7.45	-4.22	999.96	-6.59	-2.69	1006.12		0.86	1.53	6.16			
726	-0.2	0.4	29.4	-7.42	-4.23	999.96	-11.23	-1.46	1001.97		-3.81	2.77	2.01			
727	-0.2	0.4	29.4	-7.31	-4.15	999.96	-11.23	-1.46	1001.97		-3.92	2.69	2.01			
728	-0.2	0.4	29.4	-7.31	-4.15	999.96	-11.72	0	1001.24		-4.41	4.15	1.28			
729	-0.2	0.4	29.4	-7.36	-4.13	999.96	-7.08	-2.44	1004.17		0.28	1.69	4.21			
730	-0.2	0.4	29.4	-7.36	-4.13	999.96	-7.08	-2.44	1004.17		0.28	1.69	4.21			
731	-0.2	0.4	29.4	-7.36	-4.13	999.96	-4.64	-10.01	1005.63		2.72	-5.88	5.67			
732	-0.2	0.4	29.4	-7.37	-4.13	999.96	-2.2	-3.17	1002.46		5.17	0.96	2.5			
733	-0.2	0.4	29.4	-7.42	-4.13	999.96	-2.2	-3.17	1002.46		5.22	0.96	2.5			
734	-0.2	0.4	29.4	-7.41	-4.09	999.96	-8.79	-2.2	1005.63		-1.38	1.89	5.67			
735	-0.2	0.4	29.4	-7.41	-4.09	999.96	-8.79	-2.2	1005.63		-1.38	1.89	5.67			
736	-0.2	0.4	29.4	-7.41	-4.09	999.96	-5.86	-7.81	1005.88		1.55	-3.72	5.92			
737	-0.2	0.4	29.4	-7.46	-4.09	999.96	-11.23	-5.86	1005.88		-3.77	-1.77	5.92			
738	-0.2	0.4	29.4	-7.41	-4.18	999.96	-11.23	-5.86	1005.88		-3.82	-1.68	5.92			
739	-0.2	0.4	29.4	-7.41	-4.18	999.96	-4.39	-6.84	1001.73		3.02	-2.66	1.77			
740	-0.2	0.4	29.4	-7.45	-4.14	999.96	-6.59	-5.37	1003.93		0.86	-1.23	3.97			
741	-0.2	0.4	29.4	-7.45	-4.14	999.96	-6.59	-5.37	1003.93		0.86	-1.23	3.97			
742	-0.2	0.4	29.4	-7.3	-4.09	999.96	-3.91	-3.42	1004.66		3.39	0.67	4.7			
743	-0.2	0.4	29.4	-7.3	-4.09	999.96	-3.91	-3.42	1004.66		3.39	0.67	4.7			
744	-0.2	0.4	29.4	-7.35	-4.15	999.96	-3.66	-6.1	1000.75		3.69	-1.95	0.79			
745	-0.2	0.4	29.4	-7.41	-4.26	999.96	-7.32	-4.39	1002.71		0.09	-0.13	2.75			
746	-0.2	0.4	29.4	-7.41	-4.26	999.96	-7.32	-4.39	1002.71		0.09	-0.13	2.75			
747	-0.2	0.4	29.4	-7.41	-4.26	999.96	-15.14	-9.52	1004.66		-7.73	-5.26	4.7			
748	-0.2	0.4	29.4	-7.34	-4.3	999.96	-12.45	-3.42	1006.61		-5.11	0.88	6.65			
749	-0.2	0.4	29.4	-7.34	-4.3	999.96	-12.45	-3.42	1006.61		-5.11	0.88	6.65			
750	-0.2	0.4	29.4	-7.22	-4.29	999.96	-8.3	-7.57	1005.15		-1.08	-3.28	5.19			
751	-0.2	0.4	29.4	-7.28	-4.28	999.96	-8.3	-7.57	1005.15		-1.02	-3.29	5.19			
752	-0.2	0.4	29.4	-7.28	-4.28	999.96	-5.37	0.73	1000.02		1.91	5.01	0.06			
753	-0.2	0.4	29.4	-7.25	-4.18	999.96	-8.06	-2.93	1005.39		-0.81	1.25	5.43			
754	-0.2	0.4	29.4	-7.25	-4.18	999.96	-8.06	-2.93	1005.39		-0.81	1.25	5.43			
755	-0.2	0.4	29.4	-7.25	-4.18	999.96	-7.81	-5.86	1004.9		-0.56	-1.68	4.94			
756	-0.2	0.4	29.4	-7.29	-4.22	999.96	-3.66	-0.73	995.87		3.63	3.49	-4.09			
757	-0.2	0.4	29.4	-7.3	-4.22	999.96	-3.66	-0.73	995.87		3.64	3.49	-4.09			
758	-0.2	0.4	29.4	-7.3	-4.22	999.96	-10.5	-1.46	1000.26		-3.2	2.76	0.3			
759	-0.2	0.4	29.4	-7.16	-4.1	999.97	-12.21	0.73	1003.19		-5.05	4.83	3.22			
760	-0.2	0.4	29.4	-7.16	-4.1	999.97	-12.21	0.73	1003.19		-5.05	4.83	3.22			
761	-0.2	0.4	29.4	-7.07	-4.07	999.97	-6.1	-10.5	1003.44		0.97	-6.43	3.47			
762	-0.2	0.4	29.4	-7.14	-4.18	999.97	-6.1	-10.5	1003.44		1.04	-6.32	3.47			
763	-0.2	0.4	29.4	-7.14	-4.18	999.97	-7.08	-7.81	999.78		0.06	-3.63	-0.19			
764	-0.2	0.4	29.5	-7.15	-4.18	999.97	-1.95	-0.98	1002.22		5.2	3.2	2.25			
765	-0.2	0.4	29.5	-7.15	-4.18	999.97	-1.95	-0.98	1002.22		5.2	3.2	2.25			
766	-0.2	0.4	29.5	-7.15	-4.18	999.97	-9.52	-4.64	1003.93		-2.37	-0.46	3.96			
767	-0.3	0.4	29.5	-7.26	-4.37	999.96	-7.57	-1.46	1001		-0.31	2.91	1.04			
768	-0.3	0.4	29.5	-7.24	-4.41	999.96	-7.57	-1.46	1001		-0.33	2.95	1.04			
769	-0.3	0.4	29.5	-7.29	-4.41	999.96	-8.3	-6.84	999.78		-1.01	-2.43	-0.18			
770	-0.3	0.4	29.5	-7.29	-4.41	999.96	-8.3	-6.84	999.78		-1.01	-2.43	-0.18			
771	-0.3	0.4	29.5	-7.29	-4.41	999.96	-11.47	-5.37	1003.44		-4.18	-0.96	3.48			
772	-0.2	0.4	29.5	-7.46	-4.33	999.96	-8.06	-5.62	1003.19		-0.6	-1.29	3.23			
773	-0.2	0.4	29.5	-7.46	-4.33	999.96	-8.06	-5.62	1003.19		-0.6	-1.29	3.23			
774	-0.2	0.4	29.5	-7.48	-4.3	999.96	-6.84	-4.39	1003.68		0.64	-0.09	3.72			
775	-0.2	0.4	29.5	-7.49	-4.29	999.96	-15.38	-4.15	1002.46		-7.89	0.14	2.5			
776	-0.2	0.4	29.5	-7.49	-4.29	999.96	-15.38	-4.15	1002.46		-7.89	0.14	2.5			
777	-0.2	0.4	29.5	-7.44	-4.34	999.96	-5.37	-4.15	1000.26		2.07	0.19	0.3			
778	-0.2	0.4	29.5	-7.44	-4.34	999.96	-5.37	-4.15	1000.26		2.07	0.19	0.3			
779	-0.2	0.4	29.5	-7.44	-4.34	999.96	-8.54	-2.93	1001.97		-1.1	1.41	2.01			
780	-0.2	0.4	29.5	-7.47	-4.32	999.96	-3.91	-5.13	1005.88		3.56	-0.81	5.92			
781	-0.3	0.4	29.5	-7.53	-4.49	999.96	-3.91	-5.13	1005.88		3.62	-0.64	5.92			
782	-0.3	0.4	29.5	-7.53	-4.49	999.96	-9.52	-4.39	1005.88		-1.99	0.1	5.92			
783	-0.3	0.4	29.5	-7.59	-4.53	999.96	-12.21	-7.81	1000.02		-4.62	-3.28	0.06			
784	-0.3	0.4	29.5	-7.59	-4.53	999.96	-12.21	-7.81	1000.02		-4.62	-3.28	0.06			
785	-0.3	0.4	29.5	-7.61	-4.52	999.96	-9.77	-2.2	1008.81		-2.16	2.32	8.85			
786	-0.3	0.4	29.5	-7.57	-4.54	999.96	-9.77	-2.2	1008.81		-2.2	2.34	8.85			
787	-0.3	0.4	29.5	-7.57	-4.54	999.96	-8.3	0.49	1003.68		-0.73	5.03	3.72			
788	-0.3	0.4	29.5	-7.57	-4.55	999.96	-4.64	-3.91	999.29		2.93	0.64	-0.67			
789	-0.3	0.4	29.5	-7.57	-4.55	999.96	-4.64	-3.91	999.29		2.93	0.64	-0.67			
790	-0.3	0.4	29.5	-7.57	-4.55	999.96	-4.88	-10.25	1005.15		2.69	-5.7	5.19			
791	-0.3	0.4	29.5	-7.6	-4.57	999.96	-7.81	-5.13	1002.71		-0.21	-0.56	2.75			
792	-0.3	0.4	29.5	-7.62	-4.61	999.96	-7.81	-5.13	1002.71		-0.19	-0.52	2.75			
793	-0.3	0.4	29.5	-7.62	-4.61	999.96	-3.91	-2.93	1006.86		3.71	1.68	6.9			
794	-0.3	0.4	29.5	-7.58	-4.74	999.96	-9.52	-5.13	1001.73		-1.94	-0.39	1.77			
795	-0.3	0.4	29.5	-7.58	-4.74	999.96	-9.52	-5.13	1001.73		-1.94	-0.39	1.77			
796	-0.3	0.4	29.5	-7.61	-4.82	999.96	-11.47	-2.69	1003.68		-3.86	2.13	3.72			
797	-0.3	0.4	29.5	-7.61	-4.82	999.96	-11.47	-2.69	1003.68		-3.86	2.13	3.72			
798	-0.3	0.4	29.5	-7.79	-4.71	999.96	-6.59	-3.42	1001.24		1.2	1.29	1.28			
799	-0.3	0.4	29.4	-7.75	-4.61	999.96	-10.25	-9.28	1004.9		-2.5	-4.67	4.94			
800	-0.3	0.4	29.4	-7.75	-4.61	999.96	-10.25	-9.28	1004.9		-2.5	-4.67	4.94			
801	-0.3	0.4	29.4	-7.75	-4.61	999.96	-8.06	-3.42	1002.46		-0.31	1.19	2.5			
802	-0.3	0.5	29.4	-7.87	-4.71	999.96	-11.47	-1.46	1001.97		-3.6	3.25	2.01			
803	-0.3	0.5	29.4	-7.92	-4.71	999.96	-11.47	-1.46	1001.97		-3.55	3.25	2.01			
804	-0.3	0.5	29.4	-7.99	-4.64	999.96	-9.52	0	1002.71		-1.53	4.64	2.75			
805	-0.3	0.5	29.4	-7.99	-4.64	999.96	-9.52	0	1002.71		-1.53	4.64	2.75			
806	-0.3	0.5	29.4	-7.99	-4.64	999.96	-11.96	-6.59	1005.15		-3.97	-1.95	5.19			
807	-0.3	0.5	29.4	-8.01	-4.68	999.96	-12.7	-5.13	1007.1		-4.69	-0.45	7.14			
808	-0.3	0.5	29.4	-8.01	-4.68	999.96	-12.7	-5.13	1007.1		-4.69	-0.45	7.14			
809	-0.3	0.5	29.4	-8.01	-4.68	999.96	-11.72	-3.91	1006.37		-3.71	0.77	6.41			
810	-0.3	0.5	29.4	-8.05	-4.51	999.96	-11.47	-3.66	1006.86		-3.42	0.85	6.9			
811	-0.3	0.5	29.4	-8.05	-4.5	999.96	-11.47	-3.66	1006.86		-3.42	0.84	6.9			
812	-0.3	0.5	29.4	-8.03	-4.53	999.96	-7.57	-6.35	1003.44		0.46	-1.82	3.48			
813	-0.3	0.5	29.4	-8.03	-4.53	999.96	-7.57	-6.35	1003.44		0.46	-1.82	3.48			
814	-0.3	0.5	29.4	-8.03	-4.53	999.96	-7.81	-3.17	1004.41		0.22	1.36	4.45			
815	-0.3	0.5	29.4	-8.1	-4.46	999.96	-13.18	-9.03	1004.66		-5.08	-4.57	4.7			
816	-0.3	0.5	29.4	-8.13	-4.5	999.96	-13.18	-9.03	1004.66		-5.05	-4.53	4.7			
817	-0.3	0.5	29.4	-8.13	-4.5	999.96	-9.77	-3.66	1003.93		-1.64	0.84	3.97			
818	-0.3	0.5	29.4	-8.14	-4.47	999.96	-11.72	-8.06	1009.3		-3.58	-3.59	9.34			
819	-0.3	0.5	29.4	-8.14	-4.47	999.96	-11.72	-8.06	1009.3		-3.58	-3.59	9.34			
820	-0.3	0.5	29.4	-8.27	-4.51	999.96	-3.91	-3.66	1001.48		4.36	0.85	1.52			
821	-0.3	0.5	29.4	-8.27	-4.51	999.96	-3.91	-3.66	1001.48		4.36	0.85	1.52			
822	-0.3	0.5	29.4	-8.24	-4.51	999.96	-10.74	-5.62	1006.12		-2.5	-1.11	6.16			
823	-0.3	0.5	29.4	-8.26	-4.43	999.96	-10.5	-5.37	1004.66		-2.24	-0.94	4.7			
824	-0.3	0.5	29.4	-8.26	-4.43	999.96	-10.5	-5.37	1004.66		-2.24	-0.94	4.7			
825	-0.3	0.5	29.4	-8.26	-4.43	999.96	-7.32	-6.1	1001.73		0.94	-1.67	1.77			
826	-0.3	0.5	29.3	-8.23	-4.54	999.96	-9.77	-1.22	1002.46		-1.54	3.32	2.5			
827	-0.3	0.5	29.3	-8.23	-4.54	999.96	-9.77	-1.22	1002.46		-1.54	3.32	2.5			
828	-0.3	0.5	29.4	-8.2	-4.56	999.96	-11.23	-3.17	1007.59		-3.03	1.39	7.63			
829	-0.3	0.5	29.4	-8.24	-4.53	999.96	-11.23	-3.17	1007.59		-2.99	1.36	7.63			
830	-0.3	0.5	29.4	-8.24	-4.53	999.96	-10.25	-7.32	1011.25		-2.01	-2.79	11.29			
831	-0.3	0.5	29.3	-8.26	-4.5	999.96	-7.57	-6.1	1001.24		0.69	-1.6	1.28			
832	-0.3	0.5	29.3	-8.26	-4.5	999.96	-7.57	-6.1	1001.24		0.69	-1.6	1.28			
833	-0.3	0.5	29.3	-8.26	-4.5	999.96	-9.03	-6.84	1001.48		-0.77	-2.34	1.52			
834	-0.3	0.5	29.4	-8.13	-4.63	999.96	-8.54	-0.98	1006.12		-0.41	3.65	6.16			
835	-0.3	0.5	29.4	-8.1	-4.8	999.96	-8.54	-0.98	1006.12		-0.44	3.82	6.16			
836	-0.3	0.5	29.4	-8.16	-4.72	999.96	-3.91	-5.62	1000.75		4.25	-0.9	0.79			
837	-0.3	0.5	29.4	-8.16	-4.72	999.96	-3.91	-5.62	1000.75		4.25	-0.9	0.79			
838	-0.3	0.5	29.4	-8.16	-4.72	999.96	-11.72	-3.17	1006.37		-3.56	1.55	6.41			
839	-0.3	0.5	29.4	-8.22	-4.76	999.95	-7.32	-5.86	1000.75		0.9	-1.1	0.8			
840	-0.3	0.5	29.4	-8.2	-4.75	999.96	-7.32	-5.86	1000.75		0.88	-1.11	0.79			
841	-0.3	0.5	29.4	-8.2	-4.75	999.96	-10.99	-5.13	1008.08		-2.79	-0.38	8.12			
842	-0.3	0.5	29.4	-8.15	-4.86	999.96	-10.74	-4.88	1002.46		-2.59	-0.02	2.5			
843	-0.3	0.5	29.4	-8.15	-4.86	999.96	-10.74	-4.88	1002.46		-2.59	-0.02	2.5			
844	-0.3	0.5	29.4	-8.15	-4.91	999.95	-7.81	-9.52	1005.88		0.34	-4.61	5.93			
845	-0.3	0.5	29.4	-8.15	-4.91	999.95	-7.81	-9.52	1005.88		0.34	-4.61	5.93			
846	-0.3	0.5	29.4	-8.14	-4.87	999.96	-5.13	-1.95	1006.86		3.01	2.92	6.9			
847	-0.3	0.5	29.4	-8.01	-4.77	999.96	-8.3	-9.03	1004.17		-0.29	-4.26	4.21			
848	-0.3	0.5	29.4	-8.01	-4.77	999.96	-8.3	-9.03	1004.17		-0.29	-4.26	4.21			
849	-0.3	0.5	29.4	-8.01	-4.77	999.96	-10.01	-2.93	1002.46		-2	1.84	2.5			
850	-0.3	0.5	29.4	-8	-4.73	999.96	-2.44	-10.5	1004.66		5.56	-5.77	4.7			
851	-0.3	0.5	29.4	-8	-4.73	999.96	-2.44	-10.5	1004.66		5.56	-5.77	4.7			
852	-0.3	0.5	29.4	-8.02	-4.75	999.96	-10.5	-4.88	1002.22		-2.48	-0.13	2.26			
853	-0.3	0.5	29.4	-8.01	-4.74	999.96	-10.5	-4.88	1002.22		-2.49	-0.14	2.26			
854	-0.3	0.5	29.4	-8.01	-4.74	999.96	-9.03	-0.24	1007.1		-1.02	4.5	7.14			
855	-0.3	0.5	29.4	-8.04	-4.56	999.96	-10.99	-5.86	1005.39		-2.95	-1.3	5.43			
856	-0.3	0.5	29.4	-8.04	-4.56	999.96	-10.99	-5.86	1005.39		-2.95	-1.3	5.43			
857	-0.3	0.5	29.4	-8.04	-4.56	999.96	-4.88	-3.66	1004.66		3.16	0.9	4.7			
858	-0.3	0.5	29.4	-8.02	-4.56	999.96	-5.13	-6.1	1008.81		2.89	-1.54	8.85			
859	-0.3	0.5	29.4	-8.05	-4.59	999.96	-5.13	-6.1	1008.81		2.92	-1.51	8.85			
860	-0.3	0.5	29.4	-8.1	-4.57	999.96	-8.3	-0.49	999.53		-0.2	4.08	-0.43			
861	-0.3	0.5	29.4	-8.1	-4.57	999.96	-8.3	-0.49	999.53		-0.2	4.08	-0.43			
862	-0.3	0.5	29.4	-8.1	-4.57	999.96	-6.59	-1.71	1001.73		1.51	2.86	1.77			
863	-0.3	0.5	29.4	-8.18	-4.58	999.96	-5.86	-4.88	1004.9		2.32	-0.3	4.94			
864	-0.3	0.5	29.4	-8.18	-4.61	999.96	-5.86	-4.88	1004.9		2.32	-0.27	4.94			
865	-0.3	0.5	29.4	-8.18	-4.61	999.96	-10.5	-5.86	1002.71		-2.32	-1.25	2.75			
866	-0.3	0.5	29.4	-8.27	-4.61	999.96	-5.37	-5.37	1004.17		2.9	-0.76	4.21			
867	-0.3	0.5	29.4	-8.27	-4.61	999.96	-5.37	-5.37	1004.17		2.9	-0.76	4.21			
868	-0.3	0.5	29.4	-8.28	-4.61	999.96	-5.86	-1.22	1001.24		2.42	3.39	1.28			
869	-0.3	0.5	29.4	-8.28	-4.61	999.96	-5.86	-1.22	1001.24		2.42	3.39	1.28			
870	-0.3	0.5	29.4	-8.27	-4.57	999.96	-6.84	-1.46	999.53		1.43	3.11	-0.43			
871	-0.3	0.5	29.4	-8.28	-4.72	999.95	-7.08	-1.22	996.6		1.2	3.5	-3.35			
872	-0.3	0.5	29.4	-8.28	-4.72	999.95	-7.08	-1.22	996.6		1.2	3.5	-3.35			
873	-0.3	0.5	29.4	-8.28	-4.72	999.95	-9.52	-6.59	999.53		-1.24	-1.87	-0.42			
874	-0.3	0.5	29.4	-8.3	-4.71	999.95	-5.86	-2.69	1009.3		2.44	2.02	9.35			
875	-0.3	0.5	29.4	-8.3	-4.71	999.95	-5.86	-2.69	1009.3		2.44	2.02	9.35			
876	-0.3	0.5	29.4	-8.39	-4.61	999.95	-6.59	-4.64	1000.26		1.8	-0.03	0.31			
877	-0.3	0.5	29.4	-8.39	-4.61	999.95	-10.99	-10.5	1004.41		-2.6	-5.89	4.46			
878	-0.3	0.5	29.4	-8.39	-4.61	999.95	-10.99	-10.5	1004.41		-2.6	-5.89	4.46			
879	-0.3	0.5	29.4	-8.46	-4.66	999.95	-10.74	-7.32	1008.81		-2.28	-2.66	8.86			
880	-0.3	0.5	29.4	-8.46	-4.66	999.95	-10.74	-7.32	1008.81		-2.28	-2.66	8.86			
881	-0.3	0.5	29.4	-8.46	-4.66	999.95	-6.35	-5.86	1008.81		2.11	-1.2	8.86			
882	-0.3	0.5	29.4	-8.47	-4.47	999.95	-15.38	-4.64	997.09		-6.91	-0.17	-2.86			
883	-0.3	0.5	29.4	-8.56	-4.55	999.95	-15.38	-4.64	997.09		-6.82	-0.09	-2.86			
884	-0.3	0.5	29.4	-8.56	-4.61	999.95	-9.28	-10.5	999.78		-0.72	-5.89	-0.17			
885	-0.3	0.5	29.4	-8.56	-4.61	999.95	-9.28	-10.5	999.78		-0.72	-5.89	-0.17			
886	-0.3	0.5	29.4	-8.56	-4.61	999.95	-5.37	-7.81	1007.1		3.19	-3.2	7.15			
887	-0.3	0.5	29.4	-8.49	-4.7	999.95	-5.13	-7.57	1001.97		3.36	-2.87	2.02			
888	-0.3	0.5	29.3	-8.65	-4.73	999.95	-5.13	-7.57	1001.97		3.52	-2.84	2.02			
889	-0.3	0.5	29.3	-8.65	-4.73	999.95	-12.7	-4.64	999.78		-4.05	0.09	-0.17			
890	-0.3	0.5	29.3	-8.62	-4.72	999.95	-5.13	-6.1	1002.71		3.49	-1.38	2.76			
891	-0.3	0.5	29.3	-8.62	-4.72	999.95	-5.13	-6.1	1002.71		3.49	-1.38	2.76			
892	-0.3	0.5	29.3	-8.62	-4.72	999.95	-8.3	-4.15	1002.71		0.32	0.57	2.76			
893	-0.3	0.5	29.3	-8.63	-4.83	999.95	-8.54	-2.2	1006.86		0.09	2.63	6.91			
894	-0.3	0.5	29.3	-8.66	-4.85	999.95	-8.54	-2.2	1006.86		0.12	2.65	6.91			
895	-0.3	0.5	29.3	-8.59	-4.79	999.95	-5.62	-6.59	1005.63		2.97	-1.8	5.68			
896	-0.3	0.5	29.3	-8.59	-4.79	999.95	-5.62	-6.59	1005.63		2.97	-1.8	5.68			
897	-0.3	0.5	29.3	-8.59	-4.79	999.95	-8.06	-2.44	1002.22		0.53	2.35	2.27			
898	-0.3	0.5	29.3	-8.54	-4.71	999.95	-6.59	-3.42	1000.26		1.95	1.29	0.31			
899	-0.3	0.5	29.3	-8.54	-4.71	999.95	-6.59	-3.42	1000.26		1.95	1.29	0.31			
900	-0.3	0.5	29.3	-8.5	-4.63	999.95	-8.3	-0.98	1001		0.2	3.65	1.05			
901	-0.3	0.5	29.3	-8.53	-4.62	999.95	-6.1	-5.86	1002.95		2.43	-1.24	3			
902	-0.3	0.5	29.3	-8.53	-4.62	999.95	-6.1	-5.86	1002.95		2.43	-1.24	3			
903	-0.3	0.5	29.3	-8.61	-4.63	999.95	-5.13	-7.08	998.55		3.48	-2.45	-1.4			
904	-0.3	0.5	29.3	-8.61	-4.63	999.95	-5.13	-7.08	998.55		3.48	-2.45	-1.4			
905	-0.3	0.5	29.3	-8.61	-4.63	999.95	-4.39	-3.17	1006.86		4.22	1.46	6.91			
906	-0.3	0.5	29.3	-8.72	-4.51	999.95	-8.06	-7.81	1005.15		0.66	-3.3	5.2			
907	-0.3	0.5	29.3	-8.67	-4.48	999.95	-8.06	-7.81	1005.15		0.61	-3.33	5.2			
908	-0.3	0.5	29.3	-8.67	-4.48	999.95	-6.35	-7.08	1004.17		2.32	-2.6	4.22			
909	-0.3	0.5	29.3	-8.66	-4.49	999.95	-6.1	-2.2	1006.12		2.56	2.29	6.17			
910	-0.3	0.5	29.3	-8.66	-4.49	999.95	-6.1	-2.2	1006.12		2.56	2.29	6.17			
911	-0.3	0.5	29.3	-8.66	-4.49	999.95	-8.3	-6.35	1007.34		0.36	-1.86	7.39			
912	-0.3	0.5	29.3	-8.57	-4.57	999.95	-12.21	-5.62	1005.39		-3.64	-1.05	5.44			
913	-0.3	0.5	29.3	-8.6	-4.59	999.95	-12.21	-5.62	1005.39		-3.61	-1.03	5.44			
914	-0.3	0.5	29.4	-8.58	-4.54	999.95	-12.94	-6.1	1003.68		-4.36	-1.56	3.73			
915	-0.3	0.5	29.4	-8.58	-4.54	999.95	-12.94	-6.1	1003.68		-4.36	-1.56	3.73			
916	-0.3	0.5	29.4	-8.58	-4.54	999.95	-8.79	-4.15	994.89		-0.21	0.39	-5.06			
917	-0.3	0.5	29.4	-8.65	-4.67	999.95	-3.17	-4.88	1005.15		5.48	-0.21	5.2			
918	-0.3	0.5	29.4	-8.63	-4.46	999.95	-3.17	-4.88	1005.15		5.46	-0.42	5.2			
919	-0.3	0.5	29.4	-8.63	-4.46	999.95	-5.62	0.98	1006.37		3.01	5.44	6.42			
920	-0.3	0.5	29.3	-8.6	-4.48	999.95	-6.35	-8.06	1005.88		2.25	-3.58	5.93			
921	-0.3	0.5	29.3	-8.6	-4.48	999.95	-6.35	-8.06	1005.88		2.25	-3.58	5.93			
922	-0.3	0.5	29.3	-8.56	-4.49	999.95	-2.2	-9.28	1007.59		6.36	-4.79	7.64			
923	-0.3	0.5	29.3	-8.56	-4.49	999.95	-2.2	-9.28	1007.59		6.36	-4.79	7.64			
924	-0.3	0.5	29.3	-8.6	-4.5	999.95	-10.25	-4.39	1005.15		-1.65	0.11	5.2			
925	-0.3	0.5	29.3	-8.55	-4.61	999.95	-9.03	-2.93	1004.9		-0.48	1.68	4.95			
926	-0.3	0.5	29.3	-8.55	-4.61	999.95	-9.03	-2.93	1004.9		-0.48	1.68	4.95			
927	-0.3	0.5	29.3	-8.55	-4.61	999.95	-0.73	-8.3	1002.46		7.82	-3.69	2.51			
928	-0.3	0.5	29.3	-8.56	-4.64	999.95	-8.79	-3.91	1006.37		-0.23	0.73	6.42			
929	-0.3	0.5	29.3	-8.56	-4.64	999.95	-8.79	-3.91	1006.37		-0.23	0.73	6.42			
930	-0.3	0.5	29.3	-8.47	-4.64	999.95	-10.74	-1.95	1000.02		-2.27	2.69	0.07			
931	-0.3	0.5	29.3	-8.59	-4.64	999.95	-10.74	-1.95	1000.02		-2.15	2.69	0.07			
932	-0.3	0.5	29.3	-8.59	-4.64	999.95	-4.64	-6.59	1007.1		3.95	-1.95	7.15			
933	-0.3	0.5	29.3	-8.53	-4.65	999.95	-11.23	-6.1	1002.22		-2.7	-1.45	2.27			
934	-0.3	0.5	29.3	-8.53	-4.65	999.95	-11.23	-6.1	1002.22		-2.7	-1.45	2.27			
935	-0.3	0.5	29.3	-8.53	-4.65	999.95	-11.72	-5.86	1007.59		-3.19	-1.21	7.64			
936	-0.3	0.5	29.3	-8.43	-4.72	999.95	-8.54	-3.17	1006.37		-0.11	1.55	6.42			
937	-0.3	0.5	29.3	-8.38	-4.73	999.95	-8.54	-3.17	1006.37		-0.16	1.56	6.42			
938	-0.3	0.5	29.3	-8.36	-4.65	999.95	-10.99	-0.73	1001.24		-2.63	3.92	1.29			
939	-0.3	0.5	29.3	-8.36	-4.65	999.95	-10.99	-0.73	1001.24		-2.63	3.92	1.29			
940	-0.3	0.5	29.3	-8.36	-4.65	999.95	-6.59	-0.98	1006.37		1.77	3.67	6.42			
941	-0.3	0.5	29.3	-8.32	-4.54	999.96	-7.81	-7.32	1005.15		0.51	-2.78	5.19			
942	-0.3	0.5	29.3	-8.4	-4.68	999.95	-7.81	-7.32	1005.15		0.59	-2.64	5.2			
943	-0.3	0.5	29.3	-8.4	-4.68	999.95	-5.62	-3.17	1002.95		2.78	1.51	3			
944	-0.3	0.5	29.3	-8.26	-4.58	999.96	-12.21	-11.72	1003.68		-3.95	-7.14	3.72			
945	-0.3	0.5	29.3	-8.26	-4.58	999.96	-12.21	-11.72	1003.68		-3.95	-7.14	3.72			
946	-0.3	0.5	29.3	-8.24	-4.66	999.96	-3.91	0	1006.37		4.33	4.66	6.41			
947	-0.3	0.5	29.3	-8.24	-4.66	999.96	-3.91	0	1006.37		4.33	4.66	6.41			
948	-0.3	0.5	29.3	-8.25	-4.53	999.96	-5.86	-7.08	1002.71		2.39	-2.55	2.75			
949	-0.3	0.5	29.3	-8.05	-4.56	999.96	-9.77	-3.42	1003.44		-1.72	1.14	3.48			
950	-0.3	0.5	29.3	-8.05	-4.56	999.96	-9.77	-3.42	1003.44		-1.72	1.14	3.48			
951	-0.3	0.5	29.3	-8.05	-4.56	999.96	-12.45	-6.59	1003.93		-4.4	-2.03	3.97			
952	-0.3	0.5	29.3	-8	-4.47	999.96	-9.52	-8.3	1008.32		-1.52	-3.83	8.36			
953	-0.3	0.5	29.3	-8	-4.47	999.96	-9.52	-8.3	1008.32		-1.52	-3.83	8.36			
954	-0.3	0.5	29.3	-7.99	-4.55	999.96	-3.42	-5.62	1009.3		4.57	-1.07	9.34			
955	-0.3	0.5	29.3	-8.05	-4.63	999.96	-3.42	-5.62	1009.3		4.63	-0.99	9.34			
956	-0.3	0.5	29.3	-8.05	-4.63	999.96	-3.42	-4.88	1007.83		4.63	-0.25	7.87			
957	-0.3	0.5	29.3	-7.99	-4.59	999.96	-11.47	-7.32	1002.46		-3.48	-2.73	2.5			
958	-0.3	0.5	29.3	-7.99	-4.59	999.96	-11.47	-7.32	1002.46		-3.48	-2.73	2.5			
959	-0.3	0.5	29.3	-7.99	-4.59	999.96	-6.59	-1.71	1001.48		1.4	2.88	1.52			
960	-0.3	0.5	29.3	-8	-4.59	999.96	-4.15	-7.81	1006.12		3.85	-3.22	6.16			
961	-0.3	0.5	29.3	-7.91	-4.5	999.96	-4.15	-7.81	1006.12		3.76	-3.31	6.16			
962	-0.3	0.5	29.3	-7.87	-4.52	999.96	-4.64	-8.54	1001		3.23	-4.02	1.04			
963	-0.3	0.5	29.3	-7.87	-4.52	999.96	-4.64	-8.54	1001		3.23	-4.02	1.04			
964	-0.3	0.5	29.3	-7.87	-4.52	999.96	-7.57	-2.93	1007.1		0.3	1.59	7.14			
965	-0.3	0.4	29.3	-7.85	-4.57	999.96	-3.91	-2.2	1006.37		3.94	2.37	6.41			
966	-0.3	0.4	29.3	-7.82	-4.57	999.96	-3.91	-2.2	1006.37		3.91	2.37	6.41			
967	-0.3	0.4	29.3	-7.82	-4.57	999.96	-13.18	-0.73	1010.76		-5.36	3.84	10.8			
968	-0.3	0.4	29.3	-7.58	-4.76	999.96	-8.79	-10.01	1002.46		-1.21	-5.25	2.5			
969	-0.3	0.4	29.3	-7.58	-4.76	999.96	-8.79	-10.01	1002.46		-1.21	-5.25	2.5			
970	-0.3	0.4	29.4	-7.55	-4.66	999.96	-11.23	-8.3	1007.34		-3.68	-3.64	7.38			
971	-0.3	0.4	29.4	-7.55	-4.66	999.96	-11.23	-8.3	1007.34		-3.68	-3.64	7.38			
972	-0.3	0.4	29.4	-7.6	-4.67	999.96	-10.74	-4.64	1004.9		-3.14	0.03	4.94			
973	-0.3	0.4	29.4	-7.59	-4.62	999.96	-12.45	-5.13	1004.41		-4.86	-0.51	4.45			
974	-0.3	0.4	29.4	-7.59	-4.62	999.96	-12.45	-5.13	1004.41		-4.86	-0.51	4.45			
975	-0.3	0.4	29.4	-7.59	-4.62	999.96	-7.08	-2.2	1000.02		0.51	2.42	0.06			
976	-0.3	0.4	29.4	-7.54	-4.62	999.96	-8.54	-5.86	1008.32		-1	-1.24	8.36			
977	-0.3	0.4	29.4	-7.61	-4.69	999.96	-8.54	-5.86	1008.32		-0.93	-1.17	8.36			
978	-0.3	0.4	29.4	-7.7	-4.76	999.96	-9.52	-4.64	1004.66		-1.82	0.12	4.7			
979	-0.3	0.4	29.4	-7.7	-4.76	999.96	-9.52	-4.64	1004.66		-1.82	0.12	4.7			
980	-0.3	0.4	29.4	-7.7	-4.76	999.96	-13.43	-7.81	1005.15		-5.73	-3.05	5.19			
981	-0.3	0.4	29.4	-7.76	-4.64	999.96	-13.92	-3.17	1011.01		-6.16	1.47	11.05			
982	-0.3	0.4	29.4	-7.76	-4.64	999.96	-13.92	-3.17	1011.01		-6.16	1.47	11.05			
983	-0.3	0.4	29.4	-7.76	-4.64	999.96	-7.32	-2.69	1010.76		0.44	1.95	10.8			
984	-0.3	0.4	29.4	-7.75	-4.73	999.96	-3.42	-4.88	1004.17		4.33	-0.15	4.21			
985	-0.3	0.5	29.4	-7.91	-4.66	999.96	-3.42	-4.88	1004.17		4.49	-0.22	4.21			
986	-0.3	0.5	29.4	-7.9	-4.66	999.96	-10.01	-6.59	999.53		-2.11	-1.93	-0.43			
987	-0.3	0.5	29.4	-7.9	-4.66	999.96	-10.01	-6.59	999.53		-2.11	-1.93	-0.43			
988	-0.3	0.5	29.4	-7.9	-4.66	999.96	-7.32	-5.13	1004.17		0.58	-0.47	4.21			
989	-0.3	0.5	29.4	-8.02	-4.8	999.96	-10.74	-3.17	1007.59		-2.72	1.63	7.63			
990	-0.3	0.5	29.4	-8.01	-4.86	999.96	-10.74	-3.17	1007.59		-2.73	1.69	7.63			
991	-0.3	0.5	29.4	-8.01	-4.86	999.96	-14.65	-2.93	1006.61		-6.64	1.93	6.65			
992	-0.3	0.5	29.4	-8.04	-4.85	999.96	-8.3	-7.32	1005.15		-0.26	-2.47	5.19			
993	-0.3	0.5	29.4	-8.04	-4.85	999.96	-8.3	-7.32	1005.15		-0.26	-2.47	5.19			
994	-0.3	0.5	29.4	-8.02	-4.85	999.96	-7.81	-3.42	1004.41		0.21	1.43	4.45			
995	-0.3	0.5	29.4	-8.02	-4.85	999.96	-7.81	-3.42	1004.41		0.21	1.43	4.45			
996	-0.3	0.5	29.4	-8.09	-4.86	999.96	-3.17	-7.81	1005.63		4.92	-2.95	5.67			
997	-0.3	0.5	29.4	-8.09	-4.87	999.96	-10.99	-3.91	1003.93		-2.9	0.96	3.97			
998	-0.3	0.5	29.4	-8.09	-4.87	999.96	-10.99	-3.91	1003.93		-2.9	0.96	3.97			
999	-0.3	0.5	29.4	-8.09	-4.87	999.96	-3.66	-2.93	1004.66		4.43	1.94	4.7			
1000	-0.3	0.5	29.4	-8.17	-4.88	999.95	-8.3	-0.24	1004.17		-0.13	4.64	4.22			
1001	-0.3	0.5	29.4	-8.21	-4.87	999.95	-8.3	-0.24	1004.17		-0.09	4.63	4.22			
1002	-0.3	0.5	29.4	-8.12	-5.01	999.95	-7.32	-5.62	1005.39		0.8	-0.61	5.44			
1003	-0.3	0.5	29.4	-8.12	-5.01	999.95	-7.32	-5.62	1005.39		0.8	-0.61	5.44			
1004	-0.3	0.5	29.4	-8.12	-5.01	999.95	-11.72	-4.39	1007.34		-3.6	0.62	7.39			
1005	-0.3	0.5	29.4	-8.08	-5.01	999.95	-11.47	-0.98	1002.71		-3.39	4.03	2.76			
1006	-0.3	0.5	29.4	-8.08	-5.01	999.95	-11.47	-0.98	1002.71		-3.39	4.03	2.76			
1007	-0.3	0.5	29.4	-8.08	-5.01	999.95	-10.74	1.22	1001.97		-2.66	6.23	2.02			
1008	-0.3	0.5	29.4	-8.12	-5.01	999.95	-11.23	-2.2	1003.44		-3.11	2.81	3.49			
1009	-0.3	0.5	29.4	-8.06	-4.9	999.96	-11.23	-2.2	1003.44		-3.17	2.7	3.48			
1010	-0.3	0.5	29.4	-8.11	-4.9	999.96	-10.5	1.71	1006.86		-2.39	6.61	6.9			
1011	-0.3	0.5	29.4	-8.11	-4.9	999.96	-10.5	1.71	1006.86		-2.39	6.61	6.9			
1012	-0.3	0.5	29.4	-8.11	-4.9	999.96	-8.54	-4.64	1004.41		-0.43	0.26	4.45			
1013	-0.3	0.5	29.4	-8.08	-4.84	999.96	-9.28	-5.37	1000.26		-1.2	-0.53	0.3			
1014	-0.3	0.5	29.4	-8.12	-4.91	999.96	-9.28	-5.37	1000.26		-1.16	-0.46	0.3			
1015	-0.3	0.5	29.4	-8.12	-4.91	999.96	-9.28	-3.42	1001.48		-1.16	1.49	1.52			
1016	-0.3	0.5	29.4	-8.11	-4.9	999.96	-8.06	-3.17	1000.75		0.05	1.73	0.79			
1017	-0.3	0.5	29.4	-8.11	-4.9	999.96	-8.06	-3.17	1000.75		0.05	1.73	0.79			
1018	-0.3	0.5	29.4	-7.98	-4.99	999.96	-10.5	-3.66	1004.17		-2.52	1.33	4.21			
1019	-0.3	0.5	29.4	-7.98	-4.99	999.96	-10.5	-3.66	1004.17		-2.52	1.33	4.21			
1020	-0.3	0.5	29.4	-8.06	-4.97	999.96	-5.13	-3.42	1002.46		2.93	1.55	2.5			
1021	-0.3	0.5	29.4	-8.07	-4.98	999.96	-9.03	-3.66	1001.24		-0.96	1.32	1.28			
1022	-0.3	0.5	29.4	-8.07	-4.98	999.96	-9.03	-3.66	1001.24		-0.96	1.32	1.28			
1023	-0.3	0.5	29.4	-8.07	-4.98	999.96	-6.59	0	1003.19		1.48	4.98	3.23			
1024	-0.3	0.5	29.4	-8.07	-4.85	999.96	-7.81	-1.71	1001		0.26	3.14	1.04			
1025	-0.3	0.5	29.4	-8.07	-4.85	999.96	-7.81	-1.71	1001		0.26	3.14	1.04			
1026	-0.3	0.5	29.4	-8.07	-4.82	999.96	-12.21	-10.74	1009.05		-4.14	-5.92	9.09			
1027	-0.3	0.5	29.4	-8.07	-4.78	999.96	-10.01	-8.06	1000.75		-1.94	-3.28	0.79			
1028	-0.3	0.5	29.4	-8.07	-4.78	999.96	-10.01	-8.06	1000.75		-1.94	-3.28	0.79			
1029	-0.3	0.5	29.4	-8.02	-4.74	999.96	-9.52	-1.71	1002.46		-1.5	3.03	2.5			
1030	-0.3	0.5	29.4	-8.02	-4.74	999.96	-9.52	-1.71	1002.46		-1.5	3.03	2.5			
1031	-0.3	0.5	29.4	-8.02	-4.74	999.96	-6.59	-6.59	1003.44		1.43	-1.85	3.48			
1032	-0.3	0.5	29.4	-8.09	-4.89	999.96	-4.39	-2.2	999.04		3.7	2.69	-0.92			
1033	-0.3	0.5	29.4	-8.16	-4.76	999.96	-4.39	-2.2	999.04		3.77	2.56	-0.92			
1034	-0.3	0.5	29.4	-8.16	-4.76	999.96	-9.77	-4.64	1007.1		-1.61	0.12	7.14			
1035	-0.3	0.5	29.4	-8.15	-4.71	999.96	-9.77	-4.15	1005.39		-1.62	0.56	5.43			
1036	-0.3	0.5	29.4	-8.15	-4.71	999.96	-9.77	-4.15	1005.39		-1.62	0.56	5.43			
1037	-0.3	0.5	29.4	-8.1	-4.76	999.96	-8.79	-5.13	1003.68		-0.69	-0.37	3.72			
1038	-0.3	0.5	29.4	-8.07	-4.76	999.96	-8.79	-5.13	1003.68		-0.72	-0.37	3.72			
1039	-0.3	0.5	29.4	-8.07	-4.76	999.96	-11.72	-6.84	1004.41		-3.65	-2.08	4.45			
1040	-0.3	0.5	29.4	-8.06	-4.89	999.96	-15.63	-3.17	1006.37		-7.57	1.72	6.41			
1041	-0.3	0.5	29.4	-8.06	-4.89	999.96	-15.63	-3.17	1006.37		-7.57	1.72	6.41			
1042	-0.3	0.5	29.4	-8.06	-4.89	999.96	-10.25	-3.17	1001.97		-2.19	1.72	2.01			
1043	-0.3	0.5	29.4	-8.07	-4.93	999.96	-6.35	-4.88	1003.93		1.72	0.05	3.97			
1044	-0.3	0.5	29.4	-8.14	-5.07	999.95	-6.35	-4.88	1003.93		1.79	0.19	3.98			
1045	-0.3	0.5	29.4	-8.11	-5.06	999.95	-11.23	-2.2	1004.41		-3.12	2.86	4.46			
1046	-0.3	0.5	29.4	-8.11	-5.06	999.95	-11.23	-2.2	1004.41		-3.12	2.86	4.46			
1047	-0.3	0.5	29.4	-8.11	-5.06	999.95	-8.54	-3.17	1004.41		-0.43	1.89	4.46			
1048	-0.3	0.5	29.4	-8.14	-4.94	999.95	-10.74	0.73	1008.32		-2.6	5.67	8.37			
1049	-0.3	0.5	29.4	-8.14	-4.94	999.95	-10.74	0.73	1008.32		-2.6	5.67	8.37			
1050	-0.3	0.5	29.4	-8.12	-4.99	999.95	-4.15	-10.25	1004.17		3.97	-5.26	4.22			
1051	-0.3	0.5	29.4	-8.07	-5.01	999.95	-6.59	-4.39	1003.68		1.48	0.62	3.73			
1052	-0.3	0.5	29.4	-8.07	-5.01	999.95	-6.59	-4.39	1003.68		1.48	0.62	3.73			
1053	-0.3	0.5	29.4	-8.01	-5.01	999.96	-11.96	-5.13	1004.41		-3.95	-0.12	4.45			
1054	-0.3	0.5	29.4	-8.01	-5.01	999.96	-11.96	-5.13	1004.41		-3.95	-0.12	4.45			
1055	-0.3	0.5	29.4	-8.01	-5.01	999.96	-11.72	-7.57	1011.98		-3.71	-2.56	12.02			
1056	-0.3	0.5	29.4	-8.05	-4.98	999.96	-5.62	-2.2	1005.88		2.43	2.78	5.92			
1057	-0.3	0.5	29.4	-8.16	-5.05	999.95	-5.62	-2.2	1005.88		2.54	2.85	5.93			
1058	-0.3	0.5	29.4	-8.16	-5.05	999.95	-9.28	-1.22	1003.68		-1.12	3.83	3.73			
1059	-0.3	0.5	29.4	-8.25	-5.21	999.95	-10.01	-3.66	1007.59		-1.76	1.55	7.64			
1060	-0.3	0.5	29.4	-8.25	-5.21	999.95	-10.01	-3.66	1007.59		-1.76	1.55	7.64			
1061	-0.3	0.5	29.4	-8.37	-5.12	999.95	-8.79	-3.42	1000.75		-0.42	1.7	0.8			
1062	-0.3	0.5	29.4	-8.34	-4.97	999.95	-8.79	-3.42	1000.75		-0.45	1.55	0.8			
1063	-0.3	0.5	29.4	-8.34	-4.97	999.95	-8.06	-0.73	1000.75		0.28	4.24	0.8			
1064	-0.3	0.5	29.4	-8.25	-4.95	999.95	-5.86	-0.49	1001		2.39	4.46	1.05			
1065	-0.3	0.5	29.4	-8.25	-4.95	999.95	-5.86	-0.49	1001		2.39	4.46	1.05			
1066	-0.3	0.5	29.4	-8.25	-4.95	999.95	-7.32	-8.79	1008.56		0.93	-3.84	8.61			
1067	-0.3	0.5	29.4	-8.11	-4.91	999.96	-12.21	-3.17	1004.9		-4.1	1.74	4.94			
1068	-0.3	0.5	29.4	-8.16	-4.86	999.95	-12.21	-3.17	1004.9		-4.05	1.69	4.95			
1069	-0.3	0.5	29.4	-8.18	-4.89	999.95	-8.79	-2.69	1003.44		-0.61	2.2	3.49			
1070	-0.3	0.5	29.4	-8.18	-4.89	999.95	-8.79	-2.69	1003.44		-0.61	2.2	3.49			
1071	-0.3	0.5	29.4	-8.18	-4.89	999.95	-6.84	-4.88	1004.17		1.34	0.01	4.22			
1072	-0.3	0.5	29.4	-8.19	-4.87	999.95	-6.59	-1.95	1002.46		1.6	2.92	2.51			
1073	-0.3	0.5	29.4	-8.19	-4.87	999.95	-6.59	-1.95	1002.46		1.6	2.92	2.51			
1074	-0.3	0.5	29.4	-8.16	-5.03	999.95	-6.59	-5.37	1004.41		1.57	-0.34	4.46			
1075	-0.3	0.5	29.4	-8.16	-5.02	999.95	-7.32	-5.62	1004.9		0.84	-0.6	4.95			
1076	-0.3	0.5	29.4	-8.16	-5.02	999.95	-7.32	-5.62	1004.9		0.84	-0.6	4.95			
1077	-0.3	0.5	29.4	-8.13	-5.02	999.95	-5.86	-3.66	1003.44		2.27	1.36	3.49			
1078	-0.3	0.5	29.4	-8.13	-5.02	999.95	-5.86	-3.66	1003.44		2.27	1.36	3.49			
1079	-0.3	0.5	29.4	-8.13	-5.02	999.95	-3.91	-1.71	1003.93		4.22	3.31	3.98			
1080	-0.3	0.5	29.4	-8.11	-4.99	999.95	-4.15	-5.86	1005.63		3.96	-0.87	5.68			
1081	-0.3	0.5	29.4	-8.15	-4.91	999.95	-4.15	-5.86	1005.63		4	-0.95	5.68			
1082	-0.3	0.5	29.4	-8.15	-4.91	999.95	-16.11	-7.32	1002.95		-7.96	-2.41	3			
1083	-0.3	0.5	29.4	-8.17	-4.92	999.95	-13.67	-8.54	1005.39		-5.5	-3.62	5.44			
1084	-0.3	0.5	29.4	-8.17	-4.92	999.95	-13.67	-8.54	1005.39		-5.5	-3.62	5.44			
1085	-0.3	0.5	29.4	-8.14	-5.01	999.95	-11.23	-8.3	1004.17		-3.09	-3.29	4.22			
1086	-0.3	0.5	29.4	-8.27	-4.9	999.95	-11.23	-8.3	1004.17		-2.96	-3.4	4.22			
1087	-0.3	0.5	29.4	-8.27	-4.9	999.95	-10.5	-6.84	1004.41		-2.23	-1.94	4.46			
1088	-0.3	0.5	29.4	-8.17	-4.88	999.95	-7.57	-2.69	1004.9		0.6	2.19	4.95			
1089	-0.3	0.5	29.4	-8.17	-4.88	999.95	-7.57	-2.69	1004.9		0.6	2.19	4.95			
1090	-0.3	0.5	29.4	-8.17	-4.88	999.95	-9.28	1.95	999.78		-1.11	6.83	-0.17			
1091	-0.3	0.5	29.5	-8.23	-4.95	999.95	-10.25	-6.59	1005.39		-2.02	-1.64	5.44			
1092	-0.3	0.5	29.5	-8.17	-4.89	999.95	-10.25	-6.59	1005.39		-2.08	-1.7	5.44			
1093	-0.3	0.5	29.5	-8.11	-4.84	999.96	-12.94	-4.64	1004.66		-4.83	0.2	4.7			
1094	-0.3	0.5	29.5	-8.11	-4.84	999.96	-12.94	-4.64	1004.66		-4.83	0.2	4.7			
1095	-0.3	0.5	29.5	-8.11	-4.84	999.96	-7.08	-6.84	1004.66		1.03	-2	4.7			
1096	-0.3	0.5	29.4	-8.15	-5.02	999.95	-8.3	0	1004.17		-0.15	5.02	4.22			
1097	-0.3	0.5	29.4	-8.15	-5.02	999.95	-8.3	0	1004.17		-0.15	5.02	4.22			
1098	-0.3	0.5	29.5	-8.25	-5.19	999.95	-9.03	-1.71	1005.63		-0.78	3.48	5.68			
1099	-0.3	0.5	29.5	-8.25	-5.19	999.95	-6.1	-4.64	1004.17		2.15	0.55	4.22			
1100	-0.3	0.5	29.5	-8.25	-5.19	999.95	-6.1	-4.64	1004.17		2.15	0.55	4.22			
1101	-0.3	0.5	29.5	-8.22	-5.15	999.95	-12.7	-1.22	1001.73		-4.48	3.93	1.78			
1102	-0.3	0.5	29.5	-8.22	-5.15	999.95	-12.7	-1.22	1001.73		-4.48	3.93	1.78			
1103	-0.3	0.5	29.5	-8.22	-5.15	999.95	-11.47	-9.03	1002.95		-3.25	-3.88	3			
1104	-0.3	0.5	29.5	-8.24	-5.09	999.95	-6.35	-7.57	1003.93		1.89	-2.48	3.98			
1105	-0.3	0.5	29.5	-8.21	-5.14	999.95	-6.35	-7.57	1003.93		1.86	-2.43	3.98			
1106	-0.3	0.5	29.5	-8.21	-5.14	999.95	-10.25	-6.35	1000.75		-2.04	-1.21	0.8			
1107	-0.3	0.5	29.5	-8.09	-5.11	999.95	-9.77	-3.42	1008.56		-1.68	1.69	8.61			
1108	-0.3	0.5	29.5	-8.09	-5.11	999.95	-9.77	-3.42	1008.56		-1.68	1.69	8.61			
1109	-0.3	0.5	29.5	-8.1	-5.1	999.95	-8.06	-2.44	1005.63		0.04	2.66	5.68			
1110	-0.3	0.5	29.5	-8.24	-5.23	999.95	-8.06	-2.44	1005.63		0.18	2.79	5.68			
1111	-0.3	0.5	29.5	-8.24	-5.23	999.95	-8.06	-2.2	1006.61		0.18	3.03	6.66			
1112	-0.3	0.5	29.5	-8.25	-5.17	999.95	-9.52	-7.32	1004.41		-1.27	-2.15	4.46			
1113	-0.3	0.5	29.5	-8.25	-5.17	999.95	-9.52	-7.32	1004.41		-1.27	-2.15	4.46			
1114	-0.3	0.5	29.5	-8.25	-5.17	999.95	-5.13	-4.64	1002.95		3.12	0.53	3			
1115	-0.3	0.5	29.5	-8.25	-5.18	999.95	-10.01	-6.1	1007.1		-1.76	-0.92	7.15			
1116	-0.3	0.5	29.4	-8.39	-5.04	999.95	-10.01	-6.1	1007.1		-1.62	-1.06	7.15			
1117	-0.3	0.5	29.4	-8.42	-5	999.95	-5.13	-5.86	1001.97		3.29	-0.86	2.02			
1118	-0.3	0.5	29.4	-8.42	-5	999.95	-5.13	-5.86	1001.97		3.29	-0.86	2.02			
1119	-0.3	0.5	29.4	-8.42	-5	999.95	-5.13	-7.57	1002.95		3.29	-2.57	3			
1120	-0.3	0.5	29.4	-8.52	-5.09	999.95	-9.28	-1.22	1007.59		-0.76	3.87	7.64			
1121	-0.3	0.5	29.4	-8.52	-5.09	999.95	-9.28	-1.22	1007.59		-0.76	3.87	7.64			
1122	-0.3	0.5	29.4	-8.45	-5.09	999.95	-10.74	-4.39	1002.22		-2.29	0.7	2.27			
1123	-0.3	0.5	29.4	-8.48	-5.07	999.95	-5.62	-2.93	1003.93		2.86	2.14	3.98			
1124	-0.3	0.5	29.4	-8.48	-5.07	999.95	-5.62	-2.93	1003.93		2.86	2.14	3.98			
1125	-0.3	0.5	29.4	-8.48	-5.07	999.95	-12.45	-6.1	1003.19		-3.97	-1.03	3.24			
1126	-0.3	0.5	29.4	-8.52	-5.05	999.95	-13.18	-5.37	1006.37		-4.66	-0.32	6.42			
1127	-0.3	0.5	29.4	-8.52	-5.05	999.95	-13.18	-5.37	1006.37		-4.66	-0.32	6.42			
1128	-0.3	0.5	29.4	-8.43	-5.16	999.95	-5.37	0.73	1000.02		3.06	5.89	0.07			
1129	-0.3	0.5	29.4	-8.42	-5.16	999.95	-5.37	0.73	1000.02		3.05	5.89	0.07			
1130	-0.3	0.5	29.4	-8.42	-5.16	999.95	-7.57	-3.66	1005.63		0.85	1.5	5.68			
1131	-0.3	0.5	29.3	-8.45	-5.17	999.95	-3.91	-0.49	1007.1		4.54	4.68	7.15			
1132	-0.3	0.5	29.3	-8.45	-5.17	999.95	-3.91	-0.49	1007.1		4.54	4.68	7.15			
1133	-0.3	0.5	29.3	-8.45	-5.17	999.95	-5.86	-3.91	1001.97		2.59	1.26	2.02			
1134	-0.3	0.5	29.3	-8.4	-5.15	999.95	-3.66	-3.91	1004.17		4.74	1.24	4.22			
1135	-0.3	0.5	29.3	-8.44	-5.16	999.95	-3.66	-3.91	1004.17		4.78	1.25	4.22			
1136	-0.3	0.5	29.4	-8.37	-5.2	999.95	-7.08	-1.22	1005.39		1.29	3.98	5.44			
1137	-0.3	0.5	29.4	-8.37	-5.2	999.95	-7.08	-1.22	1005.39		1.29	3.98	5.44			
1138	-0.3	0.5	29.4	-8.37	-5.2	999.95	-5.62	-9.77	1001.73		2.75	-4.57	1.78			
1139	-0.3	0.5	29.4	-8.32	-5.2	999.95	-10.01	-8.06	1007.34		-1.69	-2.86	7.39			
1140	-0.3	0.5	29.4	-8.38	-5.3	999.95	-10.01	-8.06	1007.34		-1.63	-2.76	7.39			
1141	-0.3	0.5	29.4	-8.38	-5.3	999.95	-9.28	-1.71	1001.97		-0.9	3.59	2.02			
1142	-0.3	0.5	29.4	-8.37	-5.22	999.95	-8.54	-5.13	1003.93		-0.17	0.09	3.98			
1143	-0.3	0.5	29.4	-8.37	-5.22	999.95	-8.54	-5.13	1003.93		-0.17	0.09	3.98			
1144	-0.3	0.5	29.4	-8.47	-5.2	999.95	-7.57	-1.46	1005.88		0.9	3.74	5.93			
1145	-0.3	0.5	29.4	-8.47	-5.2	999.95	-7.57	-1.46	1005.88		0.9	3.74	5.93			
1146	-0.3	0.5	29.4	-8.51	-5.23	999.95	-3.91	-5.62	1002.71		4.6	-0.39	2.76			
1147	-0.3	0.5	29.4	-8.58	-5.17	999.95	-9.77	-1.71	1009.3		-1.19	3.46	9.35			
1148	-0.3	0.5	29.4	-8.58	-5.17	999.95	-9.77	-1.71	1009.3		-1.19	3.46	9.35			
1149	-0.3	0.5	29.4	-8.58	-5.17	999.95	-10.01	-8.54	1002.46		-1.43	-3.37	2.51			
1150	-0.3	0.5	29.4	-8.43	-5.1	999.95	-8.54	-4.15	1004.41		-0.11	0.95	4.46			
1151	-0.3	0.5	29.4	-8.43	-5.1	999.95	-8.54	-4.15	1004.41		-0.11	0.95	4.46			
1152	-0.3	0.5	29.4	-8.33	-4.94	999.95	-8.54	-4.15	1002.71		-0.21	0.79	2.76			
1153	-0.3	0.5	29.4	-8.35	-4.99	999.95	-8.54	-4.15	1002.71		-0.19	0.84	2.76			
1154	-0.3	0.5	29.4	-8.35	-4.99	999.95	-5.62	-4.88	1000.75		2.73	0.11	0.8			
1155	-0.3	0.5	29.4	-8.26	-4.96	999.95	-2.2	-2.2	1006.12		6.06	2.76	6.17			
1156	-0.3	0.5	29.4	-8.26	-4.96	999.95	-2.2	-2.2	1006.12		6.06	2.76	6.17			
1157	-0.3	0.5	29.4	-8.26	-4.96	999.95	-8.06	-9.52	1006.12		0.2	-4.56	6.17			
1158	-0.3	0.5	29.4	-8.26	-4.96	999.95	-5.37	-8.54	1003.93		2.89	-3.58	3.98			
1159	-0.3	0.5	29.3	-8.3	-4.88	999.95	-5.37	-8.54	1003.93		2.93	-3.66	3.98			
1160	-0.3	0.5	29.3	-8.3	-4.88	999.95	-8.54	-2.69	1003.19		-0.24	2.19	3.24			
1161	-0.3	0.5	29.3	-8.29	-4.95	999.95	-14.65	-8.79	1005.39		-6.36	-3.84	5.44			
1162	-0.3	0.5	29.3	-8.29	-4.95	999.95	-14.65	-8.79	1005.39		-6.36	-3.84	5.44			
1163	-0.3	0.5	29.3	-8.26	-4.78	999.95	-9.28	-8.79	1003.93		-1.02	-4.01	3.98			
1164	-0.3	0.5	29.3	-8.38	-4.7	999.95	-9.28	-8.79	1003.93		-0.9	-4.09	3.98			
1165	-0.3	0.5	29.3	-8.38	-4.7	999.95	-11.47	-11.47	1004.9		-3.09	-6.77	4.95			
1166	-0.3	0.5	29.3	-8.33	-4.61	999.95	-13.18	-3.66	1005.63		-4.85	0.95	5.68			
1167	-0.3	0.5	29.3	-8.33	-4.61	999.95	-13.18	-3.66	1005.63		-4.85	0.95	5.68			
1168	-0.3	0.5	29.3	-8.33	-4.62	999.95	-9.03	-6.1	1002.22		-0.7	-1.48	2.27			
1169	-0.3	0.5	29.3	-8.33	-4.62	999.95	-9.03	-6.1	1002.22		-0.7	-1.48	2.27			
1170	-0.3	0.5	29.3	-8.35	-4.62	999.95	-10.5	-6.84	1004.17		-2.15	-2.22	4.22			
1171	-0.3	0.5	29.3	-8.53	-4.67	999.95	-13.67	-5.62	1000.26		-5.14	-0.95	0.31			
1172	-0.3	0.5	29.3	-8.53	-4.67	999.95	-13.67	-5.62	1000.26		-5.14	-0.95	0.31			
1173	-0.3	0.5	29.3	-8.53	-4.67	999.95	-10.01	-8.06	1003.68		-1.48	-3.39	3.73			
1174	-0.3	0.5	29.3	-8.58	-4.66	999.95	-7.32	-4.39	1001.73		1.26	0.27	1.78			
1175	-0.3	0.5	29.3	-8.58	-4.66	999.95	-7.32	-4.39	1001.73		1.26	0.27	1.78			
1176	-0.3	0.5	29.3	-8.46	-4.5	999.95	-10.25	-6.84	1002.71		-1.79	-2.34	2.76			
1177	-0.3	0.5	29.3	-8.47	-4.49	999.95	-10.25	-6.84	1002.71		-1.78	-2.35	2.76			
1178	-0.3	0.5	29.3	-8.47	-4.49	999.95	-11.47	-7.08	1006.86		-3	-2.59	6.91			
1179	-0.3	0.5	29.4	-8.48	-4.52	999.95	-6.84	-4.39	1005.88		1.64	0.13	5.93			
1180	-0.3	0.5	29.4	-8.48	-4.52	999.95	-6.84	-4.39	1005.88		1.64	0.13	5.93			
1181	-0.3	0.5	29.4	-8.48	-4.52	999.95	-7.32	-3.91	1003.68		1.16	0.61	3.73			
1182	-0.3	0.5	29.4	-8.34	-4.53	999.95	-16.85	-2.2	1009.79		-8.51	2.33	9.84			
1183	-0.3	0.5	29.4	-8.49	-4.54	999.95	-16.85	-2.2	1009.79		-8.36	2.34	9.84			
1184	-0.3	0.5	29.4	-8.5	-4.57	999.95	-4.39	-6.35	1005.39		4.11	-1.78	5.44			
1185	-0.3	0.5	29.4	-8.5	-4.57	999.95	-4.39	-6.35	1005.39		4.11	-1.78	5.44			
1186	-0.3	0.5	29.4	-8.5	-4.57	999.95	-11.23	-0.73	1001.73		-2.73	3.84	1.78			
1187	-0.3	0.5	29.4	-8.54	-4.53	999.95	-11.47	-7.32	1004.9		-2.93	-2.79	4.95			
1188	-0.3	0.5	29.4	-8.56	-4.57	999.95	-11.47	-7.32	1004.9		-2.91	-2.75	4.95			
1189	-0.3	0.5	29.4	-8.56	-4.57	999.95	-12.21	-6.84	999.78		-3.65	-2.27	-0.17			
1190	-0.3	0.5	29.4	-8.54	-4.62	999.95	-1.71	-3.17	1005.88		6.83	1.45	5.93			
1191	-0.3	0.5	29.4	-8.54	-4.62	999.95	-1.71	-3.17	1005.88		6.83	1.45	5.93			
1192	-0.3	0.5	29.4	-8.61	-4.65	999.95	-6.35	-4.88	1006.12		2.26	-0.23	6.17			
1193	-0.3	0.5	29.4	-8.61	-4.65	999.95	-6.35	-4.88	1006.12		2.26	-0.23	6.17			
1194	-0.3	0.5	29.3	-8.59	-4.66	999.95	-6.59	-2.93	1004.41		2	1.73	4.46			
1195	-0.3	0.5	29.4	-8.57	-4.66	999.95	-10.5	-4.15	999.78		-1.93	0.51	-0.17			
1196	-0.3	0.5	29.4	-8.57	-4.66	999.95	-10.5	-4.15	999.78		-1.93	0.51	-0.17			
1197	-0.3	0.5	29.4	-8.57	-4.66	999.95	-10.01	-5.86	1007.1		-1.44	-1.2	7.15			
1198	-0.3	0.5	29.3	-8.61	-4.63	999.95	-9.03	-5.62	1004.9		-0.42	-0.99	4.95			
1199	-0.3	0.5	29.3	-8.61	-4.63	999.95	-9.03	-5.62	1004.9		-0.42	-0.99	4.95			
1200	-0.3	0.5	29.3	-8.57	-4.62	999.95	-12.7	-8.54	1003.19		-4.13	-3.92	3.24			
1201	-0.3	0.5	29.4	-8.5	-4.56	999.95	-5.13	0	1003.19		3.37	4.56	3.24			
1202	-0.3	0.5	29.4	-8.5	-4.56	999.95	-5.13	0	1003.19		3.37	4.56	3.24			
1203	-0.3	0.5	29.4	-8.51	-4.56	999.95	-9.77	-6.35	1001.73		-1.26	-1.79	1.78			
1204	-0.3	0.5	29.4	-8.51	-4.56	999.95	-9.77	-6.35	1001.73		-1.26	-1.79	1.78			
1205	-0.3	0.5	29.4	-8.51	-4.56	999.95	-8.79	-0.49	1007.59		-0.28	4.07	7.64			
1206	-0.3	0.5	29.4	-8.45	-4.72	999.95	-11.47	0	1008.56		-3.02	4.72	8.61			
1207	-0.3	0.5	29.4	-8.43	-4.77	999.95	-11.47	0	1008.56		-3.04	4.77	8.61			
1208	-0.3	0.5	29.4	-8.43	-4.77	999.95	-11.96	-6.59	1007.34		-3.53	-1.82	7.39			
1209	-0.3	0.5	29.4	-8.29	-4.71	999.95	-12.45	-4.64	1010.27		-4.16	0.07	10.32			
1210	-0.3	0.5	29.4	-8.29	-4.71	999.95	-12.45	-4.64	1010.27		-4.16	0.07	10.32			
1211	-0.3	0.5	29.4	-8.3	-4.74	999.95	-12.45	-2.2	1005.39		-4.15	2.54	5.44			
1212	-0.3	0.5	29.4	-8.26	-4.73	999.95	-12.45	-2.2	1005.39		-4.19	2.53	5.44			
1213	-0.3	0.5	29.4	-8.26	-4.73	999.95	-11.72	0	1003.93		-3.46	4.73	3.98			
1214	-0.3	0.5	29.3	-8.35	-4.64	999.95	-6.84	-2.69	1006.86		1.51	1.95	6.91			
1215	-0.3	0.5	29.3	-8.35	-4.64	999.95	-6.84	-2.69	1006.86		1.51	1.95	6.91			
1216	-0.3	0.5	29.3	-8.35	-4.64	999.95	-11.72	-8.54	1001.24		-3.37	-3.9	1.29			
1217	-0.3	0.5	29.3	-8.45	-4.56	999.95	-10.74	-6.1	1005.88		-2.29	-1.54	5.93			
1218	-0.3	0.5	29.3	-8.47	-4.55	999.95	-10.74	-6.1	1005.88		-2.27	-1.55	5.93			
1219	-0.3	0.5	29.3	-8.44	-4.39	999.95	-9.77	-5.62	1001.48		-1.33	-1.23	1.53			
1220	-0.3	0.5	29.3	-8.44	-4.39	999.95	-9.77	-5.62	1001.48		-1.33	-1.23	1.53			
1221	-0.3	0.5	29.3	-8.44	-4.39	999.95	-5.13	-15.14	1004.17		3.31	-10.75	4.22			
1222	-0.3	0.5	29.3	-8.45	-4.41	999.95	-8.79	-0.98	1002.95		-0.34	3.43	3			
1223	-0.3	0.5	29.3	-8.48	-4.52	999.95	-8.79	-0.98	1002.95		-0.31	3.54	3			
1224	-0.3	0.5	29.3	-8.48	-4.52	999.95	-7.81	-0.49	1005.63		0.67	4.03	5.68			
1225	-0.3	0.5	29.3	-8.5	-4.56	999.95	-5.37	-5.13	1002.95		3.13	-0.57	3			
1226	-0.3	0.5	29.3	-8.5	-4.56	999.95	-5.37	-5.13	1002.95		3.13	-0.57	3			
1227	-0.3	0.5	29.3	-8.46	-4.57	999.95	-13.18	-6.59	1007.59		-4.72	-2.02	7.64			
1228	-0.3	0.5	29.3	-8.46	-4.57	999.95	-13.18	-6.59	1007.59		-4.72	-2.02	7.64			
1229	-0.3	0.5	29.3	-8.46	-4.57	999.95	-9.03	-10.99	1008.56		-0.57	-6.42	8.61			
1230	-0.3	0.5	29.3	-8.47	-4.58	999.95	-12.94	-6.35	1001.48		-4.47	-1.77	1.53			
1231	-0.3	0.5	29.3	-8.51	-4.68	999.95	-12.94	-6.35	1001.48		-4.43	-1.67	1.53			
1232	-0.3	0.5	29.3	-8.51	-4.68	999.95	-3.91	-4.15	1003.68		4.6	0.53	3.73			
1233	-0.3	0.5	29.3	-8.5	-4.7	999.95	-8.54	-4.64	999.78		-0.04	0.06	-0.17			
1234	-0.3	0.5	29.3	-8.5	-4.7	999.95	-8.54	-4.64	999.78		-0.04	0.06	-0.17			
1235	-0.3	0.5	29.3	-8.49	-4.7	999.95	-6.59	-5.86	1000.02		1.9	-1.16	0.07			
1236	-0.3	0.5	29.4	-8.43	-4.76	999.95	-6.59	-5.86	1000.02		1.84	-1.1	0.07			
1237	-0.3	0.5	29.4	-8.43	-4.76	999.95	-7.08	-2.93	1006.61		1.35	1.83	6.66			
1238	-0.3	0.5	29.3	-8.47	-4.71	999.95	-9.52	-4.39	1003.93		-1.05	0.32	3.98			
1239	-0.3	0.5	29.3	-8.47	-4.71	999.95	-9.52	-4.39	1003.93		-1.05	0.32	3.98			
1240	-0.3	0.5	29.3	-8.47	-4.71	999.95	-12.45	-3.91	1004.9		-3.98	0.8	4.95			
1241	-0.3	0.5	29.3	-8.42	-4.66	999.95	-13.92	-2.69	1002.22		-5.5	1.97	2.27			
1242	-0.3	0.5	29.3	-8.34	-4.71	999.95	-13.92	-2.69	1002.22		-5.58	2.02	2.27			
1243	-0.3	0.5	29.3	-8.22	-4.87	999.95	-10.99	-8.06	1006.12		-2.77	-3.19	6.17			
1244	-0.3	0.5	29.3	-8.22	-4.87	999.95	-10.99	-8.06	1006.12		-2.77	-3.19	6.17			
1245	-0.3	0.5	29.3	-8.22	-4.87	999.95	-5.13	-9.03	1004.66		3.09	-4.16	4.71			
1246	-0.3	0.5	29.3	-8.18	-4.88	999.95	-8.54	-6.35	1001.97		-0.36	-1.47	2.02			
1247	-0.3	0.5	29.3	-8.18	-4.88	999.95	-8.54	-6.35	1001.97		-0.36	-1.47	2.02			
1248	-0.3	0.5	29.3	-8.22	-4.96	999.95	-4.15	-2.2	1004.9		4.07	2.76	4.95			
1249	-0.3	0.5	29.3	-8.24	-4.96	999.95	-11.47	-2.93	1002.95		-3.23	2.03	3			
1250	-0.3	0.5	29.3	-8.24	-4.96	999.95	-11.47	-2.93	1002.95		-3.23	2.03	3			
1251	-0.3	0.5	29.3	-8.22	-4.93	999.95	-8.06	-5.13	1001.24		0.16	-0.2	1.29			
1252	-0.3	0.5	29.3	-8.22	-4.93	999.95	-8.06	-5.13	1001.24		0.16	-0.2	1.29			
1253	-0.3	0.5	29.3	-8.22	-4.93	999.95	-13.43	-6.1	1003.68		-5.21	-1.17	3.73			
1254	-0.3	0.5	29.3	-8.17	-4.94	999.95	-8.79	-4.39	1004.9		-0.62	0.55	4.95			
1255	-0.3	0.5	29.3	-8.13	-4.84	999.96	-8.79	-4.39	1004.9		-0.66	0.45	4.94			
1256	-0.3	0.5	29.3	-8.13	-4.84	999.96	-9.77	-0.73	1005.88		-1.64	4.11	5.92			
1257	-0.3	0.5	29.3	-8.15	-4.69	999.96	-11.23	-6.59	1004.41		-3.08	-1.9	4.45			
1258	-0.3	0.5	29.3	-8.15	-4.69	999.96	-11.23	-6.59	1004.41		-3.08	-1.9	4.45			
1259	-0.3	0.5	29.3	-8.18	-4.65	999.96	-8.79	-11.47	1004.17		-0.61	-6.82	4.21			
1260	-0.3	0.5	29.4	-8.16	-4.68	999.96	-8.79	-11.47	1004.17		-0.63	-6.79	4.21			
1261	-0.3	0.5	29.4	-8.16	-4.68	999.96	-10.01	-4.64	1005.63		-1.85	0.04	5.67			
1262	-0.3	0.5	29.4	-8.18	-4.71	999.96	-12.94	-4.88	1003.44		-4.76	-0.17	3.48			
1263	-0.3	0.5	29.4	-8.18	-4.71	999.96	-12.94	-4.88	1003.44		-4.76	-0.17	3.48			
1264	-0.3	0.5	29.4	-8.18	-4.71	999.96	-7.57	-4.64	1001.97		0.61	0.07	2.01			
1265	-0.3	0.5	29.4	-8.16	-4.7	999.96	-7.57	-8.06	1002.95		0.59	-3.36	2.99			
1266	-0.3	0.5	29.4	-8.23	-4.72	999.96	-7.57	-8.06	1002.95		0.66	-3.34	2.99			
1267	-0.3	0.5	29.4	-8.2	-4.83	999.95	-8.06	-4.64	997.33		0.14	0.19	-2.62			
1268	-0.3	0.5	29.4	-8.2	-4.83	999.95	-8.06	-4.64	997.33		0.14	0.19	-2.62			
1269	-0.3	0.5	29.4	-8.2	-4.83	999.95	-10.25	-4.88	1006.86		-2.05	-0.05	6.91			
1270	-0.3	0.5	29.4	-8.2	-4.88	999.95	-11.72	-5.86	1001		-3.52	-0.98	1.05			
1271	-0.3	0.5	29.4	-8.2	-4.88	999.95	-11.72	-5.86	1001		-3.52	-0.98	1.05			
1272	-0.3	0.5	29.4	-8.24	-4.86	999.95	-7.81	-7.08	1007.1		0.43	-2.22	7.15			
1273	-0.3	0.5	29.4	-8.36	-4.58	999.95	-7.08	-8.06	1002.95		1.28	-3.48	3			
1274	-0.3	0.5	29.4	-8.36	-4.58	999.95	-7.08	-8.06	1002.95		1.28	-3.48	3			
1275	-0.3	0.5	29.4	-8.33	-4.59	999.95	-8.54	-8.79	1006.61		-0.21	-4.2	6.66			
1276	-0.3	0.5	29.4	-8.33	-4.59	999.95	-8.54	-8.79	1006.61		-0.21	-4.2	6.66			
1277	-0.3	0.5	29.4	-8.33	-4.59	999.95	-9.03	-0.49	999.78		-0.7	4.1	-0.17			
1278	-0.3	0.5	29.4	-8.33	-4.66	999.95	-11.96	-5.37	1003.68		-3.63	-0.71	3.73			
1279	-0.3	0.5	29.4	-8.19	-4.73	999.96	-11.96	-5.37	1003.68		-3.77	-0.64	3.72			
1280	-0.3	0.5	29.4	-8.19	-4.73	999.96	-13.18	-6.1	1000.26		-4.99	-1.37	0.3			
1281	-0.3	0.5	29.4	-8.12	-4.66	999.96	-6.59	-4.15	1000.51		1.53	0.51	0.55			
1282	-0.3	0.5	29.4	-8.12	-4.66	999.96	-6.59	-4.15	1000.51		1.53	0.51	0.55			
1283	-0.3	0.5	29.4	-8.14	-4.78	999.96	-11.47	-3.17	1006.12		-3.33	1.61	6.16			
1284	-0.3	0.5	29.4	-8.24	-4.84	999.95	-11.47	-3.17	1006.12		-3.23	1.67	6.17			
1285	-0.3	0.5	29.4	-8.24	-4.84	999.95	-4.88	-7.08	1003.93		3.36	-2.24	3.98			
1286	-0.3	0.5	29.4	-8.29	-4.93	999.95	-9.77	-2.69	1000.75		-1.48	2.24	0.8			
1287	-0.3	0.5	29.4	-8.29	-4.93	999.95	-9.77	-2.69	1000.75		-1.48	2.24	0.8			
1288	-0.3	0.5	29.4	-8.29	-4.93	999.95	-10.99	-2.93	1007.1		-2.7	2	7.15			
1289	-0.3	0.5	29.4	-8.17	-4.92	999.95	-8.06	-5.86	1008.08		0.11	-0.94	8.13			
1290	-0.3	0.5	29.4	-8.17	-4.92	999.95	-8.06	-5.86	1008.08		0.11	-0.94	8.13			
1291	-0.3	0.5	29.4	-8.19	-4.92	999.95	-10.74	-2.69	1003.68		-2.55	2.23	3.73			
1292	-0.3	0.5	29.4	-8.19	-4.92	999.95	-10.74	-2.69	1003.68		-2.55	2.23	3.73			
1293	-0.3	0.5	29.4	-8.19	-4.92	999.95	-8.06	-8.3	1003.93		0.13	-3.38	3.98			
1294	-0.3	0.5	29.4	-8.2	-4.91	999.95	-12.21	-3.17	1006.12		-4.01	1.74	6.17			
1295	-0.3	0.5	29.4	-8.2	-4.91	999.95	-12.21	-3.17	1006.12		-4.01	1.74	6.17			
1296	-0.3	0.5	29.4	-8.4	-5.1	999.95	-10.01	-3.66	1004.66		-1.61	1.44	4.71			
1297	-0.3	0.5	29.4	-8.39	-5.09	999.95	-7.81	-4.88	1006.12		0.58	0.21	6.17			
1298	-0.3	0.5	29.4	-8.39	-5.09	999.95	-7.81	-4.88	1006.12		0.58	0.21	6.17			
1299	-0.3	0.5	29.4	-8.45	-4.97	999.95	-9.77	-2.2	1004.66		-1.32	2.77	4.71			
1300	-0.3	0.5	29.4	-8.45	-4.97	999.95	-9.77	-2.2	1004.66		-1.32	2.77	4.71			
1301	-0.3	0.5	29.4	-8.45	-4.97	999.95	-6.35	-6.1	1000.75		2.1	-1.13	0.8			
1302	-0.3	0.5	29.4	-8.46	-4.93	999.95	-6.59	-4.39	1005.39		1.87	0.54	5.44			
1303	-0.3	0.5	29.4	-8.45	-4.95	999.95	-6.59	-4.39	1005.39		1.86	0.56	5.44			
1304	-0.3	0.5	29.4	-8.45	-4.95	999.95	-8.06	-3.42	1007.34		0.39	1.53	7.39			
1305	-0.3	0.5	29.4	-8.55	-4.89	999.95	-9.28	-1.95	1006.37		-0.73	2.94	6.42			
1306	-0.3	0.5	29.4	-8.55	-4.89	999.95	-9.28	-1.95	1006.37		-0.73	2.94	6.42			
1307	-0.3	0.5	29.4	-8.54	-4.97	999.95	-3.66	-5.62	1005.88		4.88	-0.65	5.93			
1308	-0.3	0.5	29.4	-8.57	-4.97	999.95	-3.66	-5.62	1005.88		4.91	-0.65	5.93			
1309	-0.3	0.5	29.4	-8.57	-4.97	999.95	-10.25	-7.57	1006.61		-1.68	-2.6	6.66			
1310	-0.3	0.5	29.4	-8.58	-4.96	999.95	-7.32	-5.62	1005.63		1.26	-0.66	5.68			
1311	-0.3	0.5	29.4	-8.58	-4.96	999.95	-7.32	-5.62	1005.63		1.26	-0.66	5.68			
1312	-0.3	0.5	29.4	-8.58	-4.96	999.95	-5.13	-6.1	1001.73		3.45	-1.14	1.78			
1313	-0.3	0.5	29.4	-8.48	-5.03	999.95	-9.52	-11.47	1003.19		-1.04	-6.44	3.24			
1314	-0.3	0.5	29.4	-8.53	-5.03	999.95	-9.52	-11.47	1003.19		-0.99	-6.44	3.24			
1315	-0.3	0.5	29.4	-8.51	-5.03	999.95	-6.1	-4.64	1003.44		2.41	0.39	3.49			
1316	-0.3	0.5	29.4	-8.51	-5.03	999.95	-6.1	-4.64	1003.44		2.41	0.39	3.49			
1317	-0.3	0.5	29.4	-8.51	-5.03	999.95	-12.21	-12.45	1001		-3.7	-7.42	1.05			
1318	-0.3	0.5	29.4	-8.61	-5.14	999.95	-7.81	-5.13	1001.24		0.8	0.01	1.29			
1319	-0.3	0.5	29.4	-8.61	-5.14	999.95	-7.81	-5.13	1001.24		0.8	0.01	1.29			
1320	-0.3	0.5	29.4	-8.65	-5.14	999.95	-12.7	-4.15	1004.9		-4.05	0.99	4.95			
1321	-0.3	0.5	29.4	-8.66	-5.15	999.95	-13.18	-3.66	1003.19		-4.52	1.49	3.24			
1322	-0.3	0.5	29.4	-8.66	-5.15	999.95	-13.18	-3.66	1003.19		-4.52	1.49	3.24			
1323	-0.3	0.5	29.4	-8.66	-5.16	999.95	-7.81	-8.79	1003.68		0.85	-3.63	3.73			
1324	-0.3	0.5	29.4	-8.66	-5.16	999.95	-7.81	-8.79	1003.68		0.85	-3.63	3.73			
1325	-0.3	0.5	29.4	-8.68	-5.17	999.95	-3.91	-6.1	1001.24		4.77	-0.93	1.29			
1326	-0.3	0.5	29.4	-8.67	-5.29	999.95	-13.92	-5.37	999.29		-5.25	-0.08	-0.66			
1327	-0.3	0.5	29.4	-8.67	-5.29	999.95	-13.92	-5.37	999.29		-5.25	-0.08	-0.66			
1328	-0.3	0.5	29.4	-8.67	-5.29	999.95	-9.77	-13.92	1001.73		-1.1	-8.63	1.78			
1329	-0.3	0.5	29.4	-8.64	-5.43	999.95	-10.74	-4.15	1006.86		-2.1	1.28	6.91			
1330	-0.3	0.5	29.4	-8.64	-5.43	999.95	-10.74	-4.15	1006.86		-2.1	1.28	6.91			
1331	-0.3	0.5	29.4	-8.57	-5.34	999.95	-6.35	0	1006.37		2.22	5.34	6.42			
1332	-0.3	0.5	29.4	-8.57	-5.32	999.95	-6.35	0	1006.37		2.22	5.32	6.42			
1333	-0.3	0.5	29.4	-8.57	-5.32	999.95	-9.28	-7.08	1007.1		-0.71	-1.76	7.15			
1334	-0.3	0.5	29.4	-8.6	-5.16	999.95	-6.59	0.98	1008.81		2.01	6.14	8.86			
1335	-0.3	0.5	29.4	-8.6	-5.16	999.95	-6.59	0.98	1008.81		2.01	6.14	8.86			
1336	-0.3	0.5	29.4	-8.6	-5.16	999.95	-5.13	0	1004.17		3.47	5.16	4.22			
1337	-0.3	0.5	29.4	-8.72	-5.14	999.95	-10.5	-7.57	1005.15		-1.78	-2.43	5.2			
1338	-0.3	0.5	29.4	-8.61	-5.16	999.95	-10.5	-7.57	1005.15		-1.89	-2.41	5.2			
1339	-0.3	0.5	29.4	-8.61	-5.16	999.95	-5.86	-5.37	1004.66		2.75	-0.21	4.71			
1340	-0.3	0.5	29.4	-8.62	-5.05	999.95	-6.1	-0.24	1002.22		2.52	4.81	2.27			
1341	-0.3	0.5	29.4	-8.62	-5.05	999.95	-6.1	-0.24	1002.22		2.52	4.81	2.27			
1342	-0.3	0.5	29.4	-8.61	-5	999.95	-13.43	-7.81	1003.19		-4.82	-2.81	3.24			
1343	-0.3	0.5	29.4	-8.61	-5	999.95	-13.43	-7.81	1003.19		-4.82	-2.81	3.24			
1344	-0.3	0.5	29.4	-8.62	-5.04	999.95	-10.25	-5.37	999.04		-1.63	-0.33	-0.91			
1345	-0.3	0.5	29.4	-8.71	-5.14	999.95	-9.28	-7.32	1001.48		-0.57	-2.18	1.53			
1346	-0.3	0.5	29.4	-8.71	-5.14	999.95	-9.28	-7.32	1001.48		-0.57	-2.18	1.53			
1347	-0.3	0.5	29.4	-8.71	-5.14	999.95	-9.03	-3.17	997.09		-0.32	1.97	-2.86			
1348	-0.3	0.5	29.4	-8.73	-5.15	999.95	-3.66	-5.37	1005.39		5.07	-0.22	5.44			
1349	-0.3	0.5	29.4	-8.73	-5.15	999.95	-3.66	-5.37	1005.39		5.07	-0.22	5.44			
1350	-0.3	0.5	29.4	-8.74	-5.13	999.95	-3.91	-7.32	1001.97		4.83	-2.19	2.02			
1351	-0.3	0.5	29.4	-8.82	-5.12	999.95	-3.91	-7.32	1001.97		4.91	-2.2	2.02			
1352	-0.3	0.5	29.4	-8.82	-5.12	999.95	-6.35	-5.86	1008.08		2.47	-0.74	8.13			
1353	-0.3	0.5	29.4	-8.85	-5.23	999.95	-0.98	-1.22	1001.48		7.87	4.01	1.53			
1354	-0.3	0.5	29.4	-8.85	-5.23	999.95	-0.98	-1.22	1001.48		7.87	4.01	1.53			
1355	-0.3	0.5	29.4	-8.85	-5.23	999.95	-11.23	-6.59	999.53		-2.38	-1.36	-0.42			
1356	-0.3	0.5	29.5	-8.79	-5.32	999.95	-6.59	-4.64	1006.37		2.2	0.68	6.42			
1357	-0.3	0.5	29.5	-8.83	-5.31	999.95	-6.59	-4.64	1006.37		2.24	0.67	6.42			
1358	-0.3	0.5	29.4	-8.72	-5.25	999.95	-10.99	-2.69	1001.97		-2.27	2.56	2.02			
1359	-0.3	0.5	29.4	-8.72	-5.25	999.95	-10.99	-2.69	1001.97		-2.27	2.56	2.02			
1360	-0.3	0.5	29.4	-8.72	-5.25	999.95	-9.28	-8.79	1004.66		-0.56	-3.54	4.71			
1361	-0.3	0.5	29.5	-8.69	-5.43	999.95	-7.57	-7.32	997.58		1.12	-1.89	-2.37			
1362	-0.3	0.5	29.5	-8.73	-5.42	999.95	-7.57	-7.32	997.58		1.16	-1.9	-2.37			
1363	-0.3	0.5	29.5	-8.73	-5.42	999.95	-6.84	-8.06	1001.97		1.89	-2.64	2.02			
1364	-0.3	0.5	29.4	-8.74	-5.43	999.95	-13.18	-5.86	1004.41		-4.44	-0.43	4.46			
1365	-0.3	0.5	29.4	-8.74	-5.43	999.95	-13.18	-5.86	1004.41		-4.44	-0.43	4.46			
1366	-0.3	0.5	29.4	-8.85	-5.48	999.95	-3.17	-1.46	1002.22		5.68	4.02	2.27			
1367	-0.3	0.5	29.4	-8.91	-5.44	999.95	-3.17	-1.46	1002.22		5.74	3.98	2.27			
1368	-0.3	0.5	29.4	-8.91	-5.44	999.95	-12.7	-7.08	1003.44		-3.79	-1.64	3.49			
1369	-0.3	0.5	29.4	-9.04	-5.32	999.94	-4.15	-6.84	1006.12		4.89	-1.52	6.18			
1370	-0.3	0.5	29.4	-9.04	-5.32	999.94	-4.15	-6.84	1006.12		4.89	-1.52	6.18			
1371	-0.3	0.5	29.4	-9.04	-5.32	999.94	-12.45	-7.81	1003.44		-3.41	-2.49	3.5			
1372	-0.3	0.5	29.4	-9.06	-5.4	999.94	-7.08	-6.35	1002.71		1.98	-0.95	2.77			
1373	-0.3	0.5	29.4	-9.06	-5.4	999.94	-7.08	-6.35	1002.71		1.98	-0.95	2.77			
1374	-0.3	0.5	29.4	-9.04	-5.31	999.95	-5.62	-11.47	1004.9		3.42	-6.16	4.95			
1375	-0.3	0.5	29.4	-9.05	-5.29	999.95	-14.89	-6.59	1003.44		-5.84	-1.3	3.49			
1376	-0.3	0.5	29.4	-9.05	-5.29	999.95	-14.89	-6.59	1003.44		-5.84	-1.3	3.49			
1377	-0.3	0.5	29.4	-9.01	-5.42	999.94	-8.54	-7.81	1009.05		0.47	-2.39	9.11			
1378	-0.3	0.5	29.4	-9.01	-5.42	999.94	-8.54	-7.81	1009.05		0.47	-2.39	9.11			
1379	-0.3	0.5	29.4	-9.01	-5.41	999.94	-9.77	-1.71	1001.24		-0.76	3.7	1.3			
1380	-0.3	0.5	29.4	-8.91	-5.31	999.95	-0.49	-8.79	999.78		8.42	-3.48	-0.17			
1381	-0.3	0.5	29.4	-8.91	-5.31	999.95	-0.49	-8.79	999.78		8.42	-3.48	-0.17			
1382	-0.3	0.5	29.4	-8.91	-5.31	999.95	-4.15	-1.22	1010.03		4.76	4.09	10.08			
1383	-0.3	0.5	29.4	-8.94	-5.31	999.95	-13.18	-9.03	1010.03		-4.24	-3.72	10.08			
1384	-0.3	0.5	29.4	-8.94	-5.31	999.95	-13.18	-9.03	1010.03		-4.24	-3.72	10.08			
1385	-0.3	0.5	29.4	-9.08	-5.32	999.94	-4.88	-6.84	1002.22		4.2	-1.52	2.28			
1386	-0.3	0.5	29.4	-9.06	-5.31	999.94	-4.88	-6.84	1002.22		4.18	-1.53	2.28			
1387	-0.3	0.5	29.4	-9.06	-5.31	999.94	-10.74	-6.35	1002.46		-1.68	-1.04	2.52			
1388	-0.3	0.5	29.4	-9.02	-5.33	999.95	-4.39	-5.86	1002.22		4.63	-0.53	2.27			
1389	-0.3	0.5	29.4	-9.02	-5.33	999.95	-4.39	-5.86	1002.22		4.63	-0.53	2.27			
1390	-0.3	0.5	29.4	-9.02	-5.33	999.95	-12.94	-4.64	1002.71		-3.92	0.69	2.76			
1391	-0.3	0.5	29.4	-9	-5.29	999.95	-8.54	-8.54	1003.68		0.46	-3.25	3.73			
1392	-0.3	0.5	29.4	-9.03	-5.3	999.95	-8.54	-8.54	1003.68		0.49	-3.24	3.73			
1393	-0.3	0.5	29.4	-9.04	-5.32	999.95	-7.32	-5.62	1003.19		1.72	-0.3	3.24			
1394	-0.3	0.5	29.4	-9.04	-5.32	999.95	-7.32	-5.62	1003.19		1.72	-0.3	3.24			
1395	-0.3	0.5	29.4	-9.04	-5.32	999.95	-13.92	-7.81	1005.39		-4.88	-2.49	5.44			
1396	-0.3	0.5	29.4	-9.04	-5.31	999.95	-6.59	-6.84	1008.81		2.45	-1.53	8.86			
1397	-0.3	0.5	29.4	-9.03	-5.31	999.95	-6.59	-6.84	1008.81		2.44	-1.53	8.86			
1398	-0.3	0.5	29.4	-9.03	-5.31	999.95	-12.45	-7.81	1002.46		-3.42	-2.5	2.51			
1399	-0.3	0.5	29.4	-8.97	-5.37	999.95	-8.79	-5.86	1004.9		0.18	-0.49	4.95			
1400	-0.3	0.5	29.4	-8.97	-5.37	999.95	-8.79	-5.86	1004.9		0.18	-0.49	4.95			
1401	-0.3	0.5	29.4	-8.96	-5.41	999.95	-8.79	-2.2	1001		0.17	3.21	1.05			
1402	-0.3	0.5	29.4	-8.96	-5.41	999.95	-8.79	-2.2	1001		0.17	3.21	1.05			
1403	-0.3	0.5	29.4	-8.96	-5.41	999.95	-11.23	-9.77	1002.22		-2.27	-4.36	2.27			
1404	-0.3	0.5	29.4	-8.91	-5.34	999.95	-5.37	-4.64	998.55		3.54	0.7	-1.4			
1405	-0.3	0.5	29.4	-8.89	-5.35	999.95	-5.37	-4.64	998.55		3.52	0.71	-1.4			
1406	-0.3	0.5	29.4	-8.89	-5.35	999.95	-4.88	-6.84	1005.63		4.01	-1.49	5.68			
1407	-0.3	0.5	29.4	-8.82	-5.34	999.95	-4.88	-8.54	1000.75		3.94	-3.2	0.8			
1408	-0.3	0.5	29.4	-8.82	-5.34	999.95	-4.88	-8.54	1000.75		3.94	-3.2	0.8			
1409	-0.3	0.5	29.3	-8.78	-5.27	999.95	-10.25	-0.73	1002.22		-1.47	4.54	2.27			
1410	-0.3	0.5	29.3	-8.72	-5.36	999.95	-10.25	-0.73	1002.22		-1.53	4.63	2.27			
1411	-0.3	0.5	29.3	-8.72	-5.36	999.95	-7.57	-6.1	1002.46		1.15	-0.74	2.51			
1412	-0.3	0.5	29.3	-8.72	-5.5	999.95	-9.52	-5.13	1001		-0.8	0.37	1.05			
1413	-0.3	0.5	29.3	-8.72	-5.5	999.95	-9.52	-5.13	1001		-0.8	0.37	1.05			
1414	-0.3	0.5	29.3	-8.72	-5.5	999.95	-7.81	-8.06	1005.15		0.91	-2.56	5.2			
1415	-0.3	0.5	29.4	-8.7	-5.53	999.95	-11.96	-5.13	1004.9		-3.26	0.4	4.95			
1416	-0.3	0.5	29.3	-8.72	-5.54	999.95	-11.96	-5.13	1004.9		-3.24	0.41	4.95			
1417	-0.3	0.5	29.3	-8.72	-5.63	999.95	-17.82	-7.08	1001		-9.1	-1.45	1.05			
1418	-0.3	0.5	29.3	-8.72	-5.63	999.95	-17.82	-7.08	1001		-9.1	-1.45	1.05			
1419	-0.3	0.5	29.3	-8.72	-5.63	999.95	-7.32	-8.54	1005.39		1.4	-2.91	5.44			
1420	-0.3	0.5	29.4	-8.83	-5.59	999.95	-10.5	-5.13	1002.46		-1.67	0.46	2.51			
1421	-0.3	0.5	29.4	-8.83	-5.59	999.95	-10.5	-5.13	1002.46		-1.67	0.46	2.51			
1422	-0.3	0.5	29.4	-8.75	-5.51	999.95	-9.77	-8.3	1003.19		-1.02	-2.79	3.24			
1423	-0.3	0.5	29.3	-8.73	-5.48	999.95	-10.5	-0.73	999.53		-1.77	4.75	-0.42			
1424	-0.3	0.5	29.3	-8.73	-5.48	999.95	-10.5	-0.73	999.53		-1.77	4.75	-0.42			
1425	-0.3	0.5	29.4	-8.71	-5.46	999.95	-8.79	-7.81	1004.17		-0.08	-2.35	4.22			
1426	-0.3	0.5	29.4	-8.71	-5.46	999.95	-8.79	-7.81	1004.17		-0.08	-2.35	4.22			
1427	-0.3	0.5	29.4	-8.71	-5.46	999.95	-7.32	-5.62	1000.26		1.39	-0.16	0.31			
1428	-0.3	0.5	29.4	-8.7	-5.45	999.95	-3.66	-5.62	1002.71		5.04	-0.17	2.76			
1429	-0.3	0.5	29.4	-8.74	-5.45	999.95	-3.66	-5.62	1002.71		5.08	-0.17	2.76			
1430	-0.3	0.5	29.4	-8.74	-5.45	999.95	-11.96	-9.52	1003.68		-3.22	-4.07	3.73			
1431	-0.3	0.5	29.4	-8.66	-5.33	999.95	-7.57	-6.59	1004.9		1.09	-1.26	4.95			
1432	-0.3	0.5	29.4	-8.66	-5.33	999.95	-7.57	-6.59	1004.9		1.09	-1.26	4.95			
1433	-0.3	0.5	29.4	-8.66	-5.33	999.95	-7.32	-8.79	1005.88		1.34	-3.46	5.93			
1434	-0.3	0.5	29.4	-8.66	-5.45	999.95	-9.52	-5.86	998.55		-0.86	-0.41	-1.4			
1435	-0.3	0.5	29.4	-8.57	-5.49	999.95	-9.52	-5.86	998.55		-0.95	-0.37	-1.4			
1436	-0.3	0.5	29.4	-8.59	-5.45	999.95	-10.01	-4.64	1004.9		-1.42	0.81	4.95			
1437	-0.3	0.5	29.4	-8.59	-5.45	999.95	-10.01	-4.64	1004.9		-1.42	0.81	4.95			
1438	-0.3	0.5	29.4	-8.59	-5.45	999.95	-7.08	-11.72	998.8		1.51	-6.27	-1.15			
1439	-0.3	0.5	29.4	-8.86	-5.26	999.95	-7.32	-5.13	1006.12		1.54	0.13	6.17			
1440	-0.3	0.5	29.4	-8.97	-5.16	999.95	-7.32	-5.13	1006.12		1.65	0.03	6.17			
1441	-0.3	0.5	29.4	-8.97	-5.16	999.95	-14.16	2.44	1003.93		-5.19	7.6	3.98			
1442	-0.3	0.5	29.3	-9.02	-5.27	999.95	-7.08	-7.32	1014.91		1.94	-2.05	14.96			
1443	-0.3	0.5	29.3	-9.02	-5.27	999.95	-7.08	-7.32	1014.91		1.94	-2.05	14.96			
1444	-0.3	0.5	29.3	-9.01	-5.22	999.95	-9.77	-9.03	1001.97		-0.76	-3.81	2.02			
1445	-0.3	0.5	29.3	-9.01	-5.22	999.95	-9.77	-9.03	1001.97		-0.76	-3.81	2.02			
1446	-0.3	0.5	29.3	-9.09	-5.25	999.94	-8.54	-8.54	1002.22		0.55	-3.29	2.28			
1447	-0.3	0.5	29.3	-9.1	-5.17	999.95	-11.72	-9.28	1001.24		-2.62	-4.11	1.29			
1448	-0.3	0.5	29.3	-9.1	-5.17	999.95	-11.72	-9.28	1001.24		-2.62	-4.11	1.29			
1449	-0.3	0.5	29.3	-9.1	-5.17	999.95	-13.92	-7.32	1000.26		-4.82	-2.15	0.31			
1450	-0.3	0.5	29.3	-9.05	-5.06	999.95	-13.67	-6.1	996.36		-4.62	-1.04	-3.59			
1451	-0.3	0.5	29.3	-9.05	-5.06	999.95	-13.67	-6.1	996.36		-4.62	-1.04	-3.59			
1452	-0.3	0.5	29.3	-9.04	-5.1	999.95	-15.38	-5.37	1003.44		-6.34	-0.27	3.49			
1453	-0.3	0.5	29.3	-9.03	-5.1	999.95	-15.38	-5.37	1003.44		-6.35	-0.27	3.49			
1454	-0.3	0.5	29.3	-9.03	-5.1	999.95	-7.57	-8.3	1000.02		1.46	-3.2	0.07			
1455	-0.3	0.5	29.3	-8.9	-5.05	999.95	-5.86	-10.99	1004.17		3.04	-5.94	4.22			
1456	-0.3	0.5	29.3	-8.9	-5.05	999.95	-5.86	-10.99	1004.17		3.04	-5.94	4.22			
1457	-0.3	0.5	29.3	-8.9	-5.05	999.95	-10.01	-7.32	1004.9		-1.11	-2.27	4.95			
1458	-0.3	0.5	29.3	-8.93	-4.91	999.95	-7.81	-3.91	1003.93		1.12	1	3.98			
1459	-0.3	0.5	29.3	-8.93	-4.89	999.95	-7.81	-3.91	1003.93		1.12	0.98	3.98			
1460	-0.3	0.5	29.3	-8.96	-4.91	999.95	-4.15	-3.91	1001.24		4.81	1	1.29			
1461	-0.3	0.5	29.3	-8.96	-4.91	999.95	-4.15	-3.91	1001.24		4.81	1	1.29			
1462	-0.3	0.5	29.3	-8.96	-4.91	999.95	-4.15	-6.1	1004.9		4.81	-1.19	4.95			
1463	-0.3	0.5	29.3	-8.95	-4.88	999.95	-11.23	-3.91	1004.41		-2.28	0.97	4.46			
1464	-0.3	0.5	29.3	-9.02	-4.83	999.95	-11.23	-3.91	1004.41		-2.21	0.92	4.46			
1465	-0.3	0.5	29.3	-9.02	-4.83	999.95	-7.81	-3.91	1007.34		1.21	0.92	7.39			
1466	-0.3	0.5	29.3	-8.98	-4.91	999.95	-7.08	-5.86	1003.19		1.9	-0.95	3.24			
1467	-0.3	0.5	29.3	-8.98	-4.91	999.95	-7.08	-5.86	1003.19		1.9	-0.95	3.24			
1468	-0.3	0.5	29.3	-8.92	-4.85	999.95	-11.72	-11.23	1005.15		-2.8	-6.38	5.2			
1469	-0.3	0.5	29.3	-8.92	-4.85	999.95	-11.72	-11.23	1005.15		-2.8	-6.38	5.2			
1470	-0.3	0.5	29.3	-8.9	-4.84	999.95	-5.37	-3.42	998.31		3.53	1.42	-1.64			
1471	-0.3	0.5	29.3	-8.89	-4.85	999.95	-8.79	-3.91	995.38		0.1	0.94	-4.57			
1472	-0.3	0.5	29.3	-8.89	-4.85	999.95	-8.79	-3.91	995.38		0.1	0.94	-4.57			
1473	-0.3	0.5	29.3	-8.89	-4.85	999.95	-9.03	-0.73	1007.83		-0.14	4.12	7.88			
1474	-0.3	0.5	29.2	-8.96	-4.86	999.95	-10.01	-3.17	1001.24		-1.05	1.69	1.29			
1475	-0.3	0.5	29.2	-8.96	-4.86	999.95	-10.01	-3.17	1001.24		-1.05	1.69	1.29			
1476	-0.3	0.5	29.3	-9.08	-4.72	999.95	-7.81	-8.54	1001.73		1.27	-3.82	1.78			
1477	-0.3	0.5	29.3	-9.02	-4.8	999.95	-7.81	-8.54	1001.73		1.21	-3.74	1.78			
1478	-0.3	0.5	29.3	-9.02	-4.8	999.95	-5.62	-6.35	1004.17		3.4	-1.55	4.22			
1479	-0.3	0.5	29.3	-9.07	-4.81	999.95	-10.25	-4.15	1004.9		-1.18	0.66	4.95			
1480	-0.3	0.5	29.3	-9.07	-4.81	999.95	-10.25	-4.15	1004.9		-1.18	0.66	4.95			
1481	-0.3	0.5	29.3	-9.07	-4.81	999.95	-5.13	0.24	1002.71		3.94	5.05	2.76			
1482	-0.3	0.5	29.3	-9.1	-4.85	999.95	-10.25	-4.15	1002.22		-1.15	0.7	2.27			
1483	-0.3	0.5	29.3	-9.16	-4.88	999.95	-10.25	-4.15	1002.22		-1.09	0.73	2.27			
1484	-0.3	0.5	29.3	-9.14	-4.89	999.95	-5.13	-5.37	1002.95		4.01	-0.48	3			
1485	-0.3	0.5	29.3	-9.14	-4.89	999.95	-5.13	-5.37	1002.95		4.01	-0.48	3			
1486	-0.3	0.5	29.3	-9.14	-4.89	999.95	-7.32	-2.44	1000.51		1.82	2.45	0.56			
1487	-0.3	0.5	29.4	-9.08	-4.72	999.95	-15.87	-6.59	1001.24		-6.79	-1.87	1.29			
1488	-0.3	0.5	29.4	-9.07	-4.78	999.95	-15.87	-6.59	1001.24		-6.8	-1.81	1.29			
1489	-0.3	0.5	29.4	-9.07	-4.78	999.95	-11.23	-7.81	1002.95		-2.16	-3.03	3			
1490	-0.3	0.5	29.4	-8.98	-4.9	999.95	-9.28	-2.44	1001.48		-0.3	2.46	1.53			
1491	-0.3	0.5	29.4	-8.98	-4.9	999.95	-9.28	-2.44	1001.48		-0.3	2.46	1.53			
1492	-0.3	0.5	29.4	-8.94	-4.99	999.95	-10.99	-9.77	996.36		-2.05	-4.78	-3.59			
1493	-0.3	0.5	29.4	-8.94	-4.99	999.95	-10.99	-9.77	996.36		-2.05	-4.78	-3.59			
1494	-0.3	0.5	29.4	-8.88	-4.93	999.95	-5.86	-4.88	1010.76		3.02	0.05	10.81			
1495	-0.3	0.5	29.4	-8.94	-5.07	999.95	-10.99	-4.39	998.07		-2.05	0.68	-1.88			
1496	-0.3	0.5	29.4	-8.94	-5.07	999.95	-10.99	-4.39	998.07		-2.05	0.68	-1.88			
1497	-0.3	0.5	29.4	-8.94	-5.07	999.95	-12.45	-4.64	1001.97		-3.51	0.43	2.02			
1498	-0.3	0.5	29.4	-8.95	-5.07	999.95	-8.54	-2.44	1000.75		0.41	2.63	0.8			
1499	-0.3	0.5	29.4	-8.95	-5.07	999.95	-8.54	-2.44	1000.75		0.41	2.63	0.8			
1500	-0.3	0.5	29.4	-9	-5.06	999.95	-10.01	-7.32	1004.66		-1.01	-2.26	4.71			
1501	-0.3	0.5	29.4	-9.04	-4.88	999.95	-10.01	-7.32	1004.66		-0.97	-2.44	4.71			
1502	-0.3	0.5	29.4	-9.04	-4.88	999.95	-6.1	-4.15	1003.44		2.94	0.73	3.49			
1503	-0.3	0.5	29.4	-9.06	-4.87	999.95	-6.59	-4.88	1003.93		2.47	-0.01	3.98			
1504	-0.3	0.5	29.4	-9.06	-4.87	999.95	-6.59	-4.88	1003.93		2.47	-0.01	3.98			
1505	-0.3	0.5	29.4	-9.06	-4.87	999.95	-8.3	0.24	1005.88		0.76	5.11	5.93			
1506	-0.3	0.5	29.4	-9.08	-4.84	999.95	-2.44	-9.03	1006.12		6.64	-4.19	6.17			
1507	-0.3	0.5	29.4	-9.05	-4.8	999.95	-2.44	-9.03	1006.12		6.61	-4.23	6.17			
1508	-0.3	0.5	29.4	-9.04	-4.8	999.95	-10.01	-7.81	1002.22		-0.97	-3.01	2.27			
1509	-0.3	0.5	29.4	-9.04	-4.8	999.95	-10.01	-7.81	1002.22		-0.97	-3.01	2.27			
1510	-0.3	0.5	29.4	-9.04	-4.8	999.95	-15.87	0.49	1006.61		-6.83	5.29	6.66			
1511	-0.3	0.5	29.4	-8.99	-4.91	999.95	-8.3	-1.71	1008.56		0.69	3.2	8.61			
1512	-0.3	0.5	29.5	-9.1	-4.84	999.95	-8.3	-1.71	1008.56		0.8	3.13	8.61			
1513	-0.3	0.5	29.5	-9.1	-4.84	999.95	-11.96	-6.35	1005.39		-2.86	-1.51	5.44			
1514	-0.3	0.5	29.5	-9.09	-4.87	999.95	-1.95	-8.3	1016.38		7.14	-3.43	16.43			
1515	-0.3	0.5	29.5	-9.09	-4.87	999.95	-1.95	-8.3	1016.38		7.14	-3.43	16.43			
1516	-0.3	0.5	29.5	-9.09	-4.87	999.95	-7.32	-2.93	1008.81		1.77	1.94	8.86			
1517	-0.3	0.5	29.5	-8.96	-4.8	999.95	-6.59	-5.37	1002.71		2.37	-0.57	2.76			
1518	-0.3	0.5	29.5	-8.81	-4.95	999.95	-6.59	-5.37	1002.71		2.22	-0.42	2.76			
1519	-0.3	0.5	29.5	-8.82	-4.88	999.95	-12.94	-5.86	1002.71		-4.12	-0.98	2.76			
1520	-0.3	0.5	29.5	-8.82	-4.88	999.95	-12.94	-5.86	1002.71		-4.12	-0.98	2.76			
1521	-0.3	0.5	29.5	-8.82	-4.88	999.95	-6.35	-3.91	1005.15		2.47	0.97	5.2			
1522	-0.3	0.5	29.5	-8.8	-4.86	999.95	-12.21	-2.2	1004.9		-3.41	2.66	4.95			
1523	-0.3	0.5	29.5	-8.8	-4.86	999.95	-12.21	-2.2	1004.9		-3.41	2.66	4.95			
1524	-0.3	0.5	29.5	-8.77	-4.99	999.95	-10.74	-3.91	1006.37		-1.97	1.08	6.42			
1525	-0.3	0.5	29.5	-8.79	-5.07	999.95	-10.74	-3.91	1006.37		-1.95	1.16	6.42			
1526	-0.3	0.5	29.5	-8.79	-5.07	999.95	-10.74	-4.88	1002.95		-1.95	0.19	3			
1527	-0.3	0.5	29.5	-8.69	-5.12	999.95	-11.72	-4.15	1006.61		-3.03	0.97	6.66			
1528	-0.3	0.5	29.5	-8.69	-5.12	999.95	-11.72	-4.15	1006.61		-3.03	0.97	6.66			
1529	-0.3	0.5	29.5	-8.69	-5.12	999.95	-6.1	-8.54	1003.68		2.59	-3.42	3.73			
1530	-0.3	0.5	29.5	-8.61	-5.06	999.95	-7.08	-2.44	1005.88		1.53	2.62	5.93			
1531	-0.3	0.5	29.5	-8.55	-5.08	999.95	-7.08	-2.44	1005.88		1.47	2.64	5.93			
1532	-0.3	0.5	29.5	-8.6	-4.97	999.95	-3.91	-4.88	1005.63		4.69	0.09	5.68			
1533	-0.3	0.5	29.5	-8.6	-4.97	999.95	-3.91	-4.88	1005.63		4.69	0.09	5.68			
1534	-0.3	0.5	29.5	-8.6	-4.97	999.95	-4.64	-2.69	996.11		3.96	2.28	-3.84			
1535	-0.3	0.5	29.5	-8.83	-4.88	999.95	-10.5	-5.37	999.04		-1.67	-0.49	-0.91			
1536	-0.3	0.5	29.5	-8.74	-4.76	999.95	-10.5	-5.37	999.04		-1.76	-0.61	-0.91			
1537	-0.3	0.5	29.5	-8.74	-4.76	999.95	-7.32	-0.73	1003.68		1.42	4.03	3.73			
1538	-0.3	0.5	29.5	-8.72	-4.77	999.95	-9.77	-0.49	1005.39		-1.05	4.28	5.44			
1539	-0.3	0.5	29.5	-8.72	-4.77	999.95	-9.77	-0.49	1005.39		-1.05	4.28	5.44			
1540	-0.3	0.5	29.5	-8.72	-4.77	999.95	0.24	-8.79	1002.46		8.96	-4.02	2.51			
1541	-0.3	0.5	29.4	-8.7	-4.8	999.95	-7.81	-0.73	1002.46		0.89	4.07	2.51			
1542	-0.3	0.5	29.4	-8.64	-4.9	999.95	-7.81	-0.73	1002.46		0.83	4.17	2.51			
1543	-0.3	0.5	29.4	-8.7	-5.04	999.95	-11.23	-2.44	1007.34		-2.53	2.6	7.39			
1544	-0.3	0.5	29.4	-8.7	-5.04	999.95	-11.23	-2.44	1007.34		-2.53	2.6	7.39			
1545	-0.3	0.5	29.4	-8.7	-5.04	999.95	-5.62	-3.17	1005.63		3.08	1.87	5.68			
1546	-0.3	0.5	29.4	-8.71	-5.02	999.95	-7.08	-3.42	1001.48		1.63	1.6	1.53			
1547	-0.3	0.5	29.4	-8.71	-5.02	999.95	-7.08	-3.42	1001.48		1.63	1.6	1.53			
1548	-0.3	0.5	29.4	-8.71	-5.02	999.95	-4.39	-6.1	1001.48		4.32	-1.08	1.53			
1549	-0.3	0.5	29.4	-8.69	-5.04	999.95	-10.5	-7.08	1004.66		-1.81	-2.04	4.71			
1550	-0.3	0.5	29.4	-8.69	-5.04	999.95	-10.5	-7.08	1004.66		-1.81	-2.04	4.71			
1551	-0.3	0.5	29.4	-8.71	-5.04	999.95	-14.65	-6.1	1004.9		-5.94	-1.06	4.95			
1552	-0.3	0.5	29.4	-8.71	-5.04	999.95	-14.65	-6.1	1004.9		-5.94	-1.06	4.95			
1553	-0.3	0.5	29.4	-8.71	-5.04	999.95	-7.57	-3.66	996.11		1.14	1.38	-3.84			
1554	-0.3	0.5	29.4	-8.76	-5.09	999.95	-13.67	-7.81	1001.97		-4.91	-2.72	2.02			
1555	-0.3	0.5	29.4	-8.71	-5.09	999.95	-13.67	-7.81	1001.97		-4.96	-2.72	2.02			
1556	-0.3	0.5	29.4	-8.71	-5.09	999.95	-11.47	-1.95	1002.71		-2.76	3.14	2.76			
1557	-0.3	0.5	29.4	-8.68	-5.08	999.95	-10.99	-3.91	1006.86		-2.31	1.17	6.91			
1558	-0.3	0.5	29.4	-8.68	-5.08	999.95	-10.99	-3.91	1006.86		-2.31	1.17	6.91			
1559	-0.3	0.5	29.4	-8.7	-4.97	999.95	-7.81	-5.62	1005.15		0.89	-0.65	5.2			
1560	-0.3	0.5	29.4	-8.7	-4.99	999.95	-7.81	-5.62	1005.15		0.89	-0.63	5.2			
1561	-0.3	0.5	29.4	-8.7	-4.99	999.95	-6.35	-5.37	1003.68		2.35	-0.38	3.73			
1562	-0.3	0.5	29.4	-8.8	-5.25	999.95	-9.28	-5.13	1004.9		-0.48	0.12	4.95			
1563	-0.3	0.5	29.4	-8.8	-5.25	999.95	-9.28	-5.13	1004.9		-0.48	0.12	4.95			
1564	-0.3	0.5	29.4	-8.8	-5.25	999.95	-5.86	-9.28	1004.41		2.94	-4.03	4.46			
1565	-0.3	0.5	29.4	-8.69	-5.35	999.95	-8.79	-9.77	1001.97		-0.1	-4.42	2.02			
1566	-0.3	0.5	29.4	-8.83	-5.4	999.95	-8.79	-9.77	1001.97		0.04	-4.37	2.02			
1567	-0.3	0.5	29.4	-8.8	-5.4	999.95	-4.88	-3.91	1000.02		3.92	1.49	0.07			
1568	-0.3	0.5	29.4	-8.8	-5.4	999.95	-4.88	-3.91	1000.02		3.92	1.49	0.07			
1569	-0.3	0.5	29.4	-8.8	-5.4	999.95	-9.03	-5.13	1003.68		-0.23	0.27	3.73			
1570	-0.3	0.5	29.4	-8.83	-5.38	999.95	-4.64	-8.54	1004.66		4.19	-3.16	4.71			
1571	-0.3	0.5	29.4	-8.83	-5.38	999.95	-4.64	-8.54	1004.66		4.19	-3.16	4.71			
1572	-0.3	0.5	29.4	-8.88	-5.57	999.95	-14.89	-2.2	1001.24		-6.01	3.37	1.29			
1573	-0.3	0.5	29.4	-8.92	-5.56	999.94	-14.65	-7.32	1005.39		-5.73	-1.76	5.45			
1574	-0.3	0.5	29.4	-8.92	-5.56	999.94	-14.65	-7.32	1005.39		-5.73	-1.76	5.45			
1575	-0.3	0.5	29.3	-8.94	-5.43	999.95	-9.03	-0.24	1010.76		-0.09	5.19	10.81			
1576	-0.3	0.5	29.3	-8.94	-5.43	999.95	-9.03	-0.24	1010.76		-0.09	5.19	10.81			
1577	-0.3	0.5	29.3	-8.86	-5.56	999.95	-4.15	-8.06	1006.61		4.71	-2.5	6.66			
1578	-0.3	0.5	29.3	-8.83	-5.74	999.94	-7.81	-5.37	1000.75		1.02	0.37	0.81			
1579	-0.3	0.5	29.3	-8.83	-5.74	999.94	-7.81	-5.37	1000.75		1.02	0.37	0.81			
1580	-0.3	0.5	29.3	-8.83	-5.74	999.94	-10.5	-3.42	1003.93		-1.67	2.32	3.99			
1581	-0.3	0.5	29.3	-8.81	-5.73	999.94	-7.81	-1.71	1000.51		1	4.02	0.57			
1582	-0.3	0.5	29.3	-8.81	-5.73	999.94	-7.81	-1.71	1000.51		1	4.02	0.57			
1583	-0.3	0.5	29.3	-8.69	-5.84	999.95	-9.03	1.46	1002.46		-0.34	7.3	2.51			
1584	-0.3	0.5	29.3	-8.82	-5.83	999.94	-9.03	1.46	1002.46		-0.21	7.29	2.52			
1585	-0.3	0.5	29.3	-8.82	-5.83	999.94	-8.06	-5.86	1002.46		0.76	-0.03	2.52			
1586	-0.3	0.5	29.3	-8.69	-5.64	999.95	-9.77	-6.1	1001.73		-1.08	-0.46	1.78			
1587	-0.3	0.5	29.3	-8.69	-5.64	999.95	-9.77	-6.1	1001.73		-1.08	-0.46	1.78			
1588	-0.3	0.5	29.3	-8.69	-5.64	999.95	-8.3	-3.42	1004.41		0.39	2.22	4.46			
1589	-0.3	0.5	29.3	-8.58	-5.57	999.95	-0.73	-7.08	1004.17		7.85	-1.51	4.22			
1590	-0.3	0.5	29.3	-8.59	-5.53	999.95	-0.73	-7.08	1004.17		7.86	-1.55	4.22			
1591	-0.3	0.5	29.3	-8.59	-5.53	999.95	-12.94	-9.77	1002.71		-4.35	-4.24	2.76			
1592	-0.3	0.5	29.3	-8.55	-5.67	999.95	-7.81	-6.35	997.58		0.74	-0.68	-2.37			
1593	-0.3	0.5	29.3	-8.55	-5.67	999.95	-7.81	-6.35	997.58		0.74	-0.68	-2.37			
1594	-0.3	0.5	29.3	-8.47	-5.57	999.95	-5.13	-4.64	1003.44		3.34	0.93	3.49			
1595	-0.3	0.5	29.3	-8.47	-5.57	999.95	-5.13	-4.64	1003.44		3.34	0.93	3.49			
1596	-0.3	0.5	29.3	-8.47	-5.48	999.95	-5.37	-10.5	1000.51		3.1	-5.02	0.56			
1597	-0.3	0.5	29.3	-8.53	-5.44	999.95	-9.52	-4.15	1005.15		-0.99	1.29	5.2			
1598	-0.3	0.5	29.3	-8.53	-5.44	999.95	-9.52	-4.15	1005.15		-0.99	1.29	5.2			
